trial_nr	onset	event_type	phase	response	nr_frames	bar_width	bar_refresh_time	bar_direction	start_time	bar_blank_duration	bar_blank_interval	bg_stim_refresh_time	onset_abs	duration
0	0.16652536392211914	stim	0		0								45.51061272621155	0.18355798721313477
0	0.34198904037475586	response	0	space									45.686076402664185	
1	0.3500833511352539	stim	0		0								45.69417071342468	38.924405336380005
1	39.244964361190796	pulse	0	t									84.58905172348022	
1	39.27448868751526	stim	1		0								84.61857604980469	0.0018565654754638672
1	39.27634525299072	stim	0		0								84.62043261528015	23.999552726745605
1	40.83986043930054	pulse	0	t									86.18394780158997	
1	42.439852476119995	pulse	0	t									87.78393983840942	
1	42.54799795150757	response	0	b									87.892085313797	
1	44.04001426696777	pulse	0	t									89.3841016292572	
1	45.640254735946655	pulse	0	t									90.98434209823608	
1	46.83208465576172	response	0	b									92.17617201805115	
1	47.240275859832764	pulse	0	t									92.58436322212219	
1	48.8404905796051	pulse	0	t									94.18457794189453	
1	49.407301902770996	response	0	b									94.75138926506042	
1	50.44074010848999	pulse	0	t									95.78482747077942	
1	51.76686215400696	response	0	b									97.11094951629639	
1	52.03352165222168	pulse	0	t									97.37760901451111	
1	53.6339955329895	pulse	0	t									98.97808289527893	
1	54.1329391002655	response	0	b									99.47702646255493	
1	55.234079122543335	pulse	0	t									100.57816648483276	
1	56.83508324623108	pulse	0	t									102.17917060852051	
1	57.15005660057068	response	0	b									102.49414396286011	
1	58.43402814865112	pulse	0	t									103.77811551094055	
1	60.03481721878052	pulse	0	t									105.37890458106995	
1	61.58441972732544	response	0	b									106.92850708961487	
1	61.63424515724182	pulse	0	t									106.97833251953125	
1	63.23462462425232	pulse	0	t									108.57871198654175	
2	63.27589797973633	stim	0		0	0.16666667	0.0666666666667	270.0	24.0	0.0333333333333	0.1333333333333	0.0666666666667	108.61998534202576	23.995564460754395
2	64.8340048789978	pulse	0	t		0.16666667	0.0666666666667	270.0	24.0	0.0333333333333	0.1333333333333	0.0666666666667	110.17809224128723	
2	65.83598446846008	response	0	b		0.16666667	0.0666666666667	270.0	24.0	0.0333333333333	0.1333333333333	0.0666666666667	111.18007183074951	
2	66.4340672492981	pulse	0	t		0.16666667	0.0666666666667	270.0	24.0	0.0333333333333	0.1333333333333	0.0666666666667	111.77815461158752	
2	66.9408745765686	response	0	b		0.16666667	0.0666666666667	270.0	24.0	0.0333333333333	0.1333333333333	0.0666666666667	112.28496193885803	
2	68.03398323059082	pulse	0	t		0.16666667	0.0666666666667	270.0	24.0	0.0333333333333	0.1333333333333	0.0666666666667	113.37807059288025	
2	69.63407850265503	pulse	0	t		0.16666667	0.0666666666667	270.0	24.0	0.0333333333333	0.1333333333333	0.0666666666667	114.97816586494446	
2	71.23406934738159	pulse	0	t		0.16666667	0.0666666666667	270.0	24.0	0.0333333333333	0.1333333333333	0.0666666666667	116.57815670967102	
2	72.83399868011475	pulse	0	t		0.16666667	0.0666666666667	270.0	24.0	0.0333333333333	0.1333333333333	0.0666666666667	118.17808604240417	
2	74.43399572372437	pulse	0	t		0.16666667	0.0666666666667	270.0	24.0	0.0333333333333	0.1333333333333	0.0666666666667	119.7780830860138	
2	76.03395652770996	pulse	0	t		0.16666667	0.0666666666667	270.0	24.0	0.0333333333333	0.1333333333333	0.0666666666667	121.37804388999939	
2	77.63413596153259	pulse	0	t		0.16666667	0.0666666666667	270.0	24.0	0.0333333333333	0.1333333333333	0.0666666666667	122.97822332382202	
2	79.2340943813324	pulse	0	t		0.16666667	0.0666666666667	270.0	24.0	0.0333333333333	0.1333333333333	0.0666666666667	124.57818174362183	
2	79.56414866447449	response	0	b		0.16666667	0.0666666666667	270.0	24.0	0.0333333333333	0.1333333333333	0.0666666666667	124.90823602676392	
2	80.83407330513	pulse	0	t		0.16666667	0.0666666666667	270.0	24.0	0.0333333333333	0.1333333333333	0.0666666666667	126.17816066741943	
2	82.4342257976532	pulse	0	t		0.16666667	0.0666666666667	270.0	24.0	0.0333333333333	0.1333333333333	0.0666666666667	127.77831315994263	
2	84.03419351577759	pulse	0	t		0.16666667	0.0666666666667	270.0	24.0	0.0333333333333	0.1333333333333	0.0666666666667	129.37828087806702	
2	84.96516609191895	response	0	b		0.16666667	0.0666666666667	270.0	24.0	0.0333333333333	0.1333333333333	0.0666666666667	130.30925345420837	
2	85.63421678543091	pulse	0	t		0.16666667	0.0666666666667	270.0	24.0	0.0333333333333	0.1333333333333	0.0666666666667	130.97830414772034	
2	87.23415732383728	pulse	0	t		0.16666667	0.0666666666667	270.0	24.0	0.0333333333333	0.1333333333333	0.0666666666667	132.5782446861267	
3	87.27146244049072	stim	0		0	0.16666667	0.0666666666667	0.0	48.0	0.0333333333333	0.1333333333333	0.0666666666667	132.61554980278015	24.003312587738037
3	88.83416724205017	pulse	0	t		0.16666667	0.0666666666667	0.0	48.0	0.0333333333333	0.1333333333333	0.0666666666667	134.1782546043396	
3	90.01912689208984	response	0	b		0.16666667	0.0666666666667	0.0	48.0	0.0333333333333	0.1333333333333	0.0666666666667	135.36321425437927	
3	90.43417811393738	pulse	0	t		0.16666667	0.0666666666667	0.0	48.0	0.0333333333333	0.1333333333333	0.0666666666667	135.7782654762268	
3	92.03425550460815	pulse	0	t		0.16666667	0.0666666666667	0.0	48.0	0.0333333333333	0.1333333333333	0.0666666666667	137.37834286689758	
3	92.89512777328491	response	0	b		0.16666667	0.0666666666667	0.0	48.0	0.0333333333333	0.1333333333333	0.0666666666667	138.23921513557434	
3	93.63410520553589	pulse	0	t		0.16666667	0.0666666666667	0.0	48.0	0.0333333333333	0.1333333333333	0.0666666666667	138.97819256782532	
3	95.2339699268341	pulse	0	t		0.16666667	0.0666666666667	0.0	48.0	0.0333333333333	0.1333333333333	0.0666666666667	140.57805728912354	
3	95.87287712097168	response	0	b		0.16666667	0.0666666666667	0.0	48.0	0.0333333333333	0.1333333333333	0.0666666666667	141.2169644832611	
3	96.83398818969727	pulse	0	t		0.16666667	0.0666666666667	0.0	48.0	0.0333333333333	0.1333333333333	0.0666666666667	142.1780755519867	
3	98.43411803245544	pulse	0	t		0.16666667	0.0666666666667	0.0	48.0	0.0333333333333	0.1333333333333	0.0666666666667	143.77820539474487	
3	100.03399419784546	pulse	0	t		0.16666667	0.0666666666667	0.0	48.0	0.0333333333333	0.1333333333333	0.0666666666667	145.3780815601349	
3	101.63416910171509	pulse	0	t		0.16666667	0.0666666666667	0.0	48.0	0.0333333333333	0.1333333333333	0.0666666666667	146.97825646400452	
3	103.23406791687012	pulse	0	t		0.16666667	0.0666666666667	0.0	48.0	0.0333333333333	0.1333333333333	0.0666666666667	148.57815527915955	
3	104.67094564437866	response	0	b		0.16666667	0.0666666666667	0.0	48.0	0.0333333333333	0.1333333333333	0.0666666666667	150.0150330066681	
3	104.83381009101868	pulse	0	t		0.16666667	0.0666666666667	0.0	48.0	0.0333333333333	0.1333333333333	0.0666666666667	150.1778974533081	
3	106.43422746658325	pulse	0	t		0.16666667	0.0666666666667	0.0	48.0	0.0333333333333	0.1333333333333	0.0666666666667	151.77831482887268	
3	108.03385806083679	pulse	0	t		0.16666667	0.0666666666667	0.0	48.0	0.0333333333333	0.1333333333333	0.0666666666667	153.37794542312622	
3	109.17497158050537	response	0	b		0.16666667	0.0666666666667	0.0	48.0	0.0333333333333	0.1333333333333	0.0666666666667	154.5190589427948	
3	109.63410806655884	pulse	0	t		0.16666667	0.0666666666667	0.0	48.0	0.0333333333333	0.1333333333333	0.0666666666667	154.97819542884827	
3	111.13799929618835	response	0	b		0.16666667	0.0666666666667	0.0	48.0	0.0333333333333	0.1333333333333	0.0666666666667	156.48208665847778	
3	111.2339220046997	pulse	0	t		0.16666667	0.0666666666667	0.0	48.0	0.0333333333333	0.1333333333333	0.0666666666667	156.57800936698914	
4	111.27477502822876	stim	0		0	-1.0	1.0	-1.0	72.0	0.0333333333333	0.1333333333333	0.0666666666667	156.6188623905182	15.994371891021729
4	112.83400344848633	pulse	0	t		-1.0	1.0	-1.0	72.0	0.0333333333333	0.1333333333333	0.0666666666667	158.17809081077576	
4	114.43438911437988	pulse	0	t		-1.0	1.0	-1.0	72.0	0.0333333333333	0.1333333333333	0.0666666666667	159.7784764766693	
4	116.033935546875	pulse	0	t		-1.0	1.0	-1.0	72.0	0.0333333333333	0.1333333333333	0.0666666666667	161.37802290916443	
4	117.25066900253296	response	0	b		-1.0	1.0	-1.0	72.0	0.0333333333333	0.1333333333333	0.0666666666667	162.5947563648224	
4	117.63408517837524	pulse	0	t		-1.0	1.0	-1.0	72.0	0.0333333333333	0.1333333333333	0.0666666666667	162.97817254066467	
4	119.23458123207092	pulse	0	t		-1.0	1.0	-1.0	72.0	0.0333333333333	0.1333333333333	0.0666666666667	164.57866859436035	
4	120.83533811569214	pulse	0	t		-1.0	1.0	-1.0	72.0	0.0333333333333	0.1333333333333	0.0666666666667	166.17942547798157	
4	120.918203830719	response	0	b		-1.0	1.0	-1.0	72.0	0.0333333333333	0.1333333333333	0.0666666666667	166.26229119300842	
4	122.43522763252258	pulse	0	t		-1.0	1.0	-1.0	72.0	0.0333333333333	0.1333333333333	0.0666666666667	167.779314994812	
4	124.03538942337036	pulse	0	t		-1.0	1.0	-1.0	72.0	0.0333333333333	0.1333333333333	0.0666666666667	169.3794767856598	
4	124.22677826881409	response	0	b		-1.0	1.0	-1.0	72.0	0.0333333333333	0.1333333333333	0.0666666666667	169.57086563110352	
4	125.63550734519958	pulse	0	t		-1.0	1.0	-1.0	72.0	0.0333333333333	0.1333333333333	0.0666666666667	170.979594707489	
4	127.23609066009521	pulse	0	t		-1.0	1.0	-1.0	72.0	0.0333333333333	0.1333333333333	0.0666666666667	172.58017802238464	
5	127.26914691925049	stim	0		0	0.16666667	0.0666666666667	90.0	88.0	0.0333333333333	0.1333333333333	0.0666666666667	172.61323428153992	24.003376483917236
5	127.50038719177246	response	0	b		0.16666667	0.0666666666667	90.0	88.0	0.0333333333333	0.1333333333333	0.0666666666667	172.8444745540619	
5	128.8344588279724	pulse	0	t		0.16666667	0.0666666666667	90.0	88.0	0.0333333333333	0.1333333333333	0.0666666666667	174.17854619026184	
5	130.428475856781	response	0	b		0.16666667	0.0666666666667	90.0	88.0	0.0333333333333	0.1333333333333	0.0666666666667	175.77256321907043	
5	130.43413972854614	pulse	0	t		0.16666667	0.0666666666667	90.0	88.0	0.0333333333333	0.1333333333333	0.0666666666667	175.77822709083557	
5	132.03455257415771	pulse	0	t		0.16666667	0.0666666666667	90.0	88.0	0.0333333333333	0.1333333333333	0.0666666666667	177.37863993644714	
5	133.6333019733429	pulse	0	t		0.16666667	0.0666666666667	90.0	88.0	0.0333333333333	0.1333333333333	0.0666666666667	178.97738933563232	
5	135.2335684299469	pulse	0	t		0.16666667	0.0666666666667	90.0	88.0	0.0333333333333	0.1333333333333	0.0666666666667	180.57765579223633	
5	135.84246683120728	response	0	b		0.16666667	0.0666666666667	90.0	88.0	0.0333333333333	0.1333333333333	0.0666666666667	181.1865541934967	
5	136.83354544639587	pulse	0	t		0.16666667	0.0666666666667	90.0	88.0	0.0333333333333	0.1333333333333	0.0666666666667	182.1776328086853	
5	138.4335060119629	pulse	0	t		0.16666667	0.0666666666667	90.0	88.0	0.0333333333333	0.1333333333333	0.0666666666667	183.77759337425232	
5	139.90051460266113	response	0	b		0.16666667	0.0666666666667	90.0	88.0	0.0333333333333	0.1333333333333	0.0666666666667	185.24460196495056	
5	140.0334632396698	pulse	0	t		0.16666667	0.0666666666667	90.0	88.0	0.0333333333333	0.1333333333333	0.0666666666667	185.37755060195923	
5	141.6333863735199	pulse	0	t		0.16666667	0.0666666666667	90.0	88.0	0.0333333333333	0.1333333333333	0.0666666666667	186.97747373580933	
5	143.23343515396118	pulse	0	t		0.16666667	0.0666666666667	90.0	88.0	0.0333333333333	0.1333333333333	0.0666666666667	188.5775225162506	
5	144.05663108825684	response	0	b		0.16666667	0.0666666666667	90.0	88.0	0.0333333333333	0.1333333333333	0.0666666666667	189.40071845054626	
5	144.83373427391052	pulse	0	t		0.16666667	0.0666666666667	90.0	88.0	0.0333333333333	0.1333333333333	0.0666666666667	190.17782163619995	
5	146.4335629940033	pulse	0	t		0.16666667	0.0666666666667	90.0	88.0	0.0333333333333	0.1333333333333	0.0666666666667	191.77765035629272	
5	148.03369307518005	pulse	0	t		0.16666667	0.0666666666667	90.0	88.0	0.0333333333333	0.1333333333333	0.0666666666667	193.37778043746948	
5	149.6334891319275	pulse	0	t		0.16666667	0.0666666666667	90.0	88.0	0.0333333333333	0.1333333333333	0.0666666666667	194.97757649421692	
5	149.69026374816895	response	0	b		0.16666667	0.0666666666667	90.0	88.0	0.0333333333333	0.1333333333333	0.0666666666667	195.03435111045837	
5	151.23337149620056	pulse	0	t		0.16666667	0.0666666666667	90.0	88.0	0.0333333333333	0.1333333333333	0.0666666666667	196.57745885849	
6	151.27252340316772	stim	0		0	0.16666667	0.0666666666667	180.0	112.0	0.0333333333333	0.1333333333333	0.0666666666667	196.61661076545715	24.003537893295288
6	152.83379483222961	pulse	0	t		0.16666667	0.0666666666667	180.0	112.0	0.0333333333333	0.1333333333333	0.0666666666667	198.17788219451904	
6	154.43337726593018	pulse	0	t		0.16666667	0.0666666666667	180.0	112.0	0.0333333333333	0.1333333333333	0.0666666666667	199.7774646282196	
6	156.0334722995758	pulse	0	t		0.16666667	0.0666666666667	180.0	112.0	0.0333333333333	0.1333333333333	0.0666666666667	201.37755966186523	
6	156.11319994926453	response	0	b		0.16666667	0.0666666666667	180.0	112.0	0.0333333333333	0.1333333333333	0.0666666666667	201.45728731155396	
6	156.256413936615	response	0	b		0.16666667	0.0666666666667	180.0	112.0	0.0333333333333	0.1333333333333	0.0666666666667	201.60050129890442	
6	157.6335949897766	pulse	0	t		0.16666667	0.0666666666667	180.0	112.0	0.0333333333333	0.1333333333333	0.0666666666667	202.97768235206604	
6	159.23362064361572	pulse	0	t		0.16666667	0.0666666666667	180.0	112.0	0.0333333333333	0.1333333333333	0.0666666666667	204.57770800590515	
6	159.5824191570282	response	0	b		0.16666667	0.0666666666667	180.0	112.0	0.0333333333333	0.1333333333333	0.0666666666667	204.92650651931763	
6	160.83365082740784	pulse	0	t		0.16666667	0.0666666666667	180.0	112.0	0.0333333333333	0.1333333333333	0.0666666666667	206.17773818969727	
6	162.4335503578186	pulse	0	t		0.16666667	0.0666666666667	180.0	112.0	0.0333333333333	0.1333333333333	0.0666666666667	207.77763772010803	
6	164.03361415863037	pulse	0	t		0.16666667	0.0666666666667	180.0	112.0	0.0333333333333	0.1333333333333	0.0666666666667	209.3777015209198	
6	165.63360333442688	pulse	0	t		0.16666667	0.0666666666667	180.0	112.0	0.0333333333333	0.1333333333333	0.0666666666667	210.9776906967163	
6	166.21739768981934	response	0	b		0.16666667	0.0666666666667	180.0	112.0	0.0333333333333	0.1333333333333	0.0666666666667	211.56148505210876	
6	167.23364686965942	pulse	0	t		0.16666667	0.0666666666667	180.0	112.0	0.0333333333333	0.1333333333333	0.0666666666667	212.57773423194885	
6	168.83360838890076	pulse	0	t		0.16666667	0.0666666666667	180.0	112.0	0.0333333333333	0.1333333333333	0.0666666666667	214.17769575119019	
6	170.43368077278137	pulse	0	t		0.16666667	0.0666666666667	180.0	112.0	0.0333333333333	0.1333333333333	0.0666666666667	215.7777681350708	
6	172.0336627960205	pulse	0	t		0.16666667	0.0666666666667	180.0	112.0	0.0333333333333	0.1333333333333	0.0666666666667	217.37775015830994	
6	173.6335985660553	pulse	0	t		0.16666667	0.0666666666667	180.0	112.0	0.0333333333333	0.1333333333333	0.0666666666667	218.97768592834473	
6	175.23372054100037	pulse	0	t		0.16666667	0.0666666666667	180.0	112.0	0.0333333333333	0.1333333333333	0.0666666666667	220.5778079032898	
7	175.276061296463	stim	0		0	-1.0	1.0	-1.0	136.0	0.0333333333333	0.1333333333333	0.0666666666667	220.62014865875244	15.993987560272217
7	176.83484601974487	pulse	0	t		-1.0	1.0	-1.0	136.0	0.0333333333333	0.1333333333333	0.0666666666667	222.1789333820343	
7	178.23496413230896	response	0	b		-1.0	1.0	-1.0	136.0	0.0333333333333	0.1333333333333	0.0666666666667	223.5790514945984	
7	178.43491411209106	pulse	0	t		-1.0	1.0	-1.0	136.0	0.0333333333333	0.1333333333333	0.0666666666667	223.7790014743805	
7	180.0351378917694	pulse	0	t		-1.0	1.0	-1.0	136.0	0.0333333333333	0.1333333333333	0.0666666666667	225.37922525405884	
7	181.63537168502808	pulse	0	t		-1.0	1.0	-1.0	136.0	0.0333333333333	0.1333333333333	0.0666666666667	226.9794590473175	
7	183.23560619354248	pulse	0	t		-1.0	1.0	-1.0	136.0	0.0333333333333	0.1333333333333	0.0666666666667	228.5796935558319	
7	184.83585500717163	pulse	0	t		-1.0	1.0	-1.0	136.0	0.0333333333333	0.1333333333333	0.0666666666667	230.17994236946106	
7	185.69434237480164	response	0	b		-1.0	1.0	-1.0	136.0	0.0333333333333	0.1333333333333	0.0666666666667	231.03842973709106	
7	186.436194896698	pulse	0	t		-1.0	1.0	-1.0	136.0	0.0333333333333	0.1333333333333	0.0666666666667	231.78028225898743	
7	186.96951341629028	response	0	b		-1.0	1.0	-1.0	136.0	0.0333333333333	0.1333333333333	0.0666666666667	232.3136007785797	
7	188.03638863563538	pulse	0	t		-1.0	1.0	-1.0	136.0	0.0333333333333	0.1333333333333	0.0666666666667	233.3804759979248	
7	189.63683915138245	pulse	0	t		-1.0	1.0	-1.0	136.0	0.0333333333333	0.1333333333333	0.0666666666667	234.98092651367188	
7	189.76991200447083	response	0	b		-1.0	1.0	-1.0	136.0	0.0333333333333	0.1333333333333	0.0666666666667	235.11399936676025	
7	191.2368152141571	pulse	0	t		-1.0	1.0	-1.0	136.0	0.0333333333333	0.1333333333333	0.0666666666667	236.58090257644653	
8	191.27004885673523	stim	0		0	-1.0	1.0	-1.0	152.0	0.0333333333333	0.1333333333333	0.0666666666667	236.61413621902466	16.00252604484558
8	192.83748269081116	pulse	0	t		-1.0	1.0	-1.0	152.0	0.0333333333333	0.1333333333333	0.0666666666667	238.1815700531006	
8	193.04585123062134	response	0	b		-1.0	1.0	-1.0	152.0	0.0333333333333	0.1333333333333	0.0666666666667	238.38993859291077	
8	194.437433719635	pulse	0	t		-1.0	1.0	-1.0	152.0	0.0333333333333	0.1333333333333	0.0666666666667	239.78152108192444	
8	195.72105479240417	response	0	b		-1.0	1.0	-1.0	152.0	0.0333333333333	0.1333333333333	0.0666666666667	241.0651421546936	
8	196.03761792182922	pulse	0	t		-1.0	1.0	-1.0	152.0	0.0333333333333	0.1333333333333	0.0666666666667	241.38170528411865	
8	197.63788628578186	pulse	0	t		-1.0	1.0	-1.0	152.0	0.0333333333333	0.1333333333333	0.0666666666667	242.9819736480713	
8	199.2381193637848	pulse	0	t		-1.0	1.0	-1.0	152.0	0.0333333333333	0.1333333333333	0.0666666666667	244.58220672607422	
8	200.83836579322815	pulse	0	t		-1.0	1.0	-1.0	152.0	0.0333333333333	0.1333333333333	0.0666666666667	246.18245315551758	
8	202.4388506412506	pulse	0	t		-1.0	1.0	-1.0	152.0	0.0333333333333	0.1333333333333	0.0666666666667	247.78293800354004	
8	203.13049983978271	response	0	b		-1.0	1.0	-1.0	152.0	0.0333333333333	0.1333333333333	0.0666666666667	248.47458720207214	
8	204.03883910179138	pulse	0	t		-1.0	1.0	-1.0	152.0	0.0333333333333	0.1333333333333	0.0666666666667	249.3829264640808	
8	205.27239418029785	response	0	b		-1.0	1.0	-1.0	152.0	0.0333333333333	0.1333333333333	0.0666666666667	250.61648154258728	
8	205.6391065120697	pulse	0	t		-1.0	1.0	-1.0	152.0	0.0333333333333	0.1333333333333	0.0666666666667	250.98319387435913	
8	207.23931694030762	pulse	0	t		-1.0	1.0	-1.0	152.0	0.0333333333333	0.1333333333333	0.0666666666667	252.58340430259705	
9	207.2725749015808	stim	0		0	0.16666667	0.0666666666667	180.0	168.0	0.0333333333333	0.1333333333333	0.0666666666667	252.61666226387024	24.003541946411133
9	208.83382892608643	pulse	0	t		0.16666667	0.0666666666667	180.0	168.0	0.0333333333333	0.1333333333333	0.0666666666667	254.17791628837585	
9	210.08903622627258	response	0	b		0.16666667	0.0666666666667	180.0	168.0	0.0333333333333	0.1333333333333	0.0666666666667	255.433123588562	
9	210.43390321731567	pulse	0	t		0.16666667	0.0666666666667	180.0	168.0	0.0333333333333	0.1333333333333	0.0666666666667	255.7779905796051	
9	212.03409218788147	pulse	0	t		0.16666667	0.0666666666667	180.0	168.0	0.0333333333333	0.1333333333333	0.0666666666667	257.3781795501709	
9	212.7918736934662	response	0	b		0.16666667	0.0666666666667	180.0	168.0	0.0333333333333	0.1333333333333	0.0666666666667	258.1359610557556	
9	213.63389444351196	pulse	0	t		0.16666667	0.0666666666667	180.0	168.0	0.0333333333333	0.1333333333333	0.0666666666667	258.9779818058014	
9	215.23401403427124	pulse	0	t		0.16666667	0.0666666666667	180.0	168.0	0.0333333333333	0.1333333333333	0.0666666666667	260.57810139656067	
9	216.29291534423828	response	0	b		0.16666667	0.0666666666667	180.0	168.0	0.0333333333333	0.1333333333333	0.0666666666667	261.6370027065277	
9	216.834046125412	pulse	0	t		0.16666667	0.0666666666667	180.0	168.0	0.0333333333333	0.1333333333333	0.0666666666667	262.1781334877014	
9	218.43392872810364	pulse	0	t		0.16666667	0.0666666666667	180.0	168.0	0.0333333333333	0.1333333333333	0.0666666666667	263.77801609039307	
9	220.03404641151428	pulse	0	t		0.16666667	0.0666666666667	180.0	168.0	0.0333333333333	0.1333333333333	0.0666666666667	265.3781337738037	
9	220.68572521209717	response	0	b		0.16666667	0.0666666666667	180.0	168.0	0.0333333333333	0.1333333333333	0.0666666666667	266.0298125743866	
9	221.63405871391296	pulse	0	t		0.16666667	0.0666666666667	180.0	168.0	0.0333333333333	0.1333333333333	0.0666666666667	266.9781460762024	
9	223.23404026031494	pulse	0	t		0.16666667	0.0666666666667	180.0	168.0	0.0333333333333	0.1333333333333	0.0666666666667	268.57812762260437	
9	223.7790229320526	response	0	b		0.16666667	0.0666666666667	180.0	168.0	0.0333333333333	0.1333333333333	0.0666666666667	269.12311029434204	
9	224.83409190177917	pulse	0	t		0.16666667	0.0666666666667	180.0	168.0	0.0333333333333	0.1333333333333	0.0666666666667	270.1781792640686	
9	226.43402814865112	pulse	0	t		0.16666667	0.0666666666667	180.0	168.0	0.0333333333333	0.1333333333333	0.0666666666667	271.77811551094055	
9	227.2737910747528	response	0	b		0.16666667	0.0666666666667	180.0	168.0	0.0333333333333	0.1333333333333	0.0666666666667	272.61787843704224	
9	228.03405213356018	pulse	0	t		0.16666667	0.0666666666667	180.0	168.0	0.0333333333333	0.1333333333333	0.0666666666667	273.3781394958496	
9	229.63386249542236	pulse	0	t		0.16666667	0.0666666666667	180.0	168.0	0.0333333333333	0.1333333333333	0.0666666666667	274.9779498577118	
9	229.6377182006836	response	0	b		0.16666667	0.0666666666667	180.0	168.0	0.0333333333333	0.1333333333333	0.0666666666667	274.981805562973	
9	231.23399233818054	pulse	0	t		0.16666667	0.0666666666667	180.0	168.0	0.0333333333333	0.1333333333333	0.0666666666667	276.57807970046997	
10	231.27611684799194	stim	0		0	0.16666667	0.0666666666667	90.0	192.0	0.0333333333333	0.1333333333333	0.0666666666667	276.6202042102814	23.995365619659424
10	232.55792379379272	response	0	b		0.16666667	0.0666666666667	90.0	192.0	0.0333333333333	0.1333333333333	0.0666666666667	277.90201115608215	
10	232.83393669128418	pulse	0	t		0.16666667	0.0666666666667	90.0	192.0	0.0333333333333	0.1333333333333	0.0666666666667	278.1780240535736	
10	234.43403720855713	pulse	0	t		0.16666667	0.0666666666667	90.0	192.0	0.0333333333333	0.1333333333333	0.0666666666667	279.77812457084656	
10	236.03403878211975	pulse	0	t		0.16666667	0.0666666666667	90.0	192.0	0.0333333333333	0.1333333333333	0.0666666666667	281.3781261444092	
10	236.6189353466034	response	0	b		0.16666667	0.0666666666667	90.0	192.0	0.0333333333333	0.1333333333333	0.0666666666667	281.9630227088928	
10	237.6338722705841	pulse	0	t		0.16666667	0.0666666666667	90.0	192.0	0.0333333333333	0.1333333333333	0.0666666666667	282.97795963287354	
10	239.2338879108429	pulse	0	t		0.16666667	0.0666666666667	90.0	192.0	0.0333333333333	0.1333333333333	0.0666666666667	284.5779752731323	
10	240.33606028556824	response	0	b		0.16666667	0.0666666666667	90.0	192.0	0.0333333333333	0.1333333333333	0.0666666666667	285.68014764785767	
10	240.8339273929596	pulse	0	t		0.16666667	0.0666666666667	90.0	192.0	0.0333333333333	0.1333333333333	0.0666666666667	286.178014755249	
10	242.43409299850464	pulse	0	t		0.16666667	0.0666666666667	90.0	192.0	0.0333333333333	0.1333333333333	0.0666666666667	287.77818036079407	
10	243.56508564949036	response	0	b		0.16666667	0.0666666666667	90.0	192.0	0.0333333333333	0.1333333333333	0.0666666666667	288.9091730117798	
10	244.03415083885193	pulse	0	t		0.16666667	0.0666666666667	90.0	192.0	0.0333333333333	0.1333333333333	0.0666666666667	289.37823820114136	
10	245.63409805297852	pulse	0	t		0.16666667	0.0666666666667	90.0	192.0	0.0333333333333	0.1333333333333	0.0666666666667	290.97818541526794	
10	246.16212964057922	response	0	b		0.16666667	0.0666666666667	90.0	192.0	0.0333333333333	0.1333333333333	0.0666666666667	291.50621700286865	
10	247.23424363136292	pulse	0	t		0.16666667	0.0666666666667	90.0	192.0	0.0333333333333	0.1333333333333	0.0666666666667	292.57833099365234	
10	248.83397245407104	pulse	0	t		0.16666667	0.0666666666667	90.0	192.0	0.0333333333333	0.1333333333333	0.0666666666667	294.1780598163605	
10	250.06698894500732	response	0	b		0.16666667	0.0666666666667	90.0	192.0	0.0333333333333	0.1333333333333	0.0666666666667	295.41107630729675	
10	250.4341161251068	pulse	0	t		0.16666667	0.0666666666667	90.0	192.0	0.0333333333333	0.1333333333333	0.0666666666667	295.77820348739624	
10	252.03418946266174	pulse	0	t		0.16666667	0.0666666666667	90.0	192.0	0.0333333333333	0.1333333333333	0.0666666666667	297.3782768249512	
10	253.24305057525635	response	0	b		0.16666667	0.0666666666667	90.0	192.0	0.0333333333333	0.1333333333333	0.0666666666667	298.5871379375458	
10	253.63412857055664	pulse	0	t		0.16666667	0.0666666666667	90.0	192.0	0.0333333333333	0.1333333333333	0.0666666666667	298.97821593284607	
10	255.23426389694214	pulse	0	t		0.16666667	0.0666666666667	90.0	192.0	0.0333333333333	0.1333333333333	0.0666666666667	300.57835125923157	
11	255.27148246765137	stim	0		0	-1.0	1.0	-1.0	216.0	0.0333333333333	0.1333333333333	0.0666666666667	300.6155698299408	16.002361536026
11	256.5467007160187	response	0	b		-1.0	1.0	-1.0	216.0	0.0333333333333	0.1333333333333	0.0666666666667	301.8907880783081	
11	256.8383367061615	pulse	0	t		-1.0	1.0	-1.0	216.0	0.0333333333333	0.1333333333333	0.0666666666667	302.1824240684509	
11	258.43858432769775	pulse	0	t		-1.0	1.0	-1.0	216.0	0.0333333333333	0.1333333333333	0.0666666666667	303.7826716899872	
11	260.0388596057892	pulse	0	t		-1.0	1.0	-1.0	216.0	0.0333333333333	0.1333333333333	0.0666666666667	305.3829469680786	
11	261.15571451187134	response	0	b		-1.0	1.0	-1.0	216.0	0.0333333333333	0.1333333333333	0.0666666666667	306.49980187416077	
11	261.63905334472656	pulse	0	t		-1.0	1.0	-1.0	216.0	0.0333333333333	0.1333333333333	0.0666666666667	306.983140707016	
11	263.2392854690552	pulse	0	t		-1.0	1.0	-1.0	216.0	0.0333333333333	0.1333333333333	0.0666666666667	308.5833728313446	
11	264.8395371437073	pulse	0	t		-1.0	1.0	-1.0	216.0	0.0333333333333	0.1333333333333	0.0666666666667	310.1836245059967	
11	266.4398512840271	pulse	0	t		-1.0	1.0	-1.0	216.0	0.0333333333333	0.1333333333333	0.0666666666667	311.7839386463165	
11	267.5150547027588	response	0	b		-1.0	1.0	-1.0	216.0	0.0333333333333	0.1333333333333	0.0666666666667	312.8591420650482	
11	268.04009556770325	pulse	0	t		-1.0	1.0	-1.0	216.0	0.0333333333333	0.1333333333333	0.0666666666667	313.3841829299927	
11	269.64041209220886	pulse	0	t		-1.0	1.0	-1.0	216.0	0.0333333333333	0.1333333333333	0.0666666666667	314.9844994544983	
11	270.31554770469666	response	0	b		-1.0	1.0	-1.0	216.0	0.0333333333333	0.1333333333333	0.0666666666667	315.6596350669861	
11	271.24072337150574	pulse	0	t		-1.0	1.0	-1.0	216.0	0.0333333333333	0.1333333333333	0.0666666666667	316.58481073379517	
12	271.27384400367737	stim	0		0	0.16666667	0.0666666666667	0.0	232.0	0.0333333333333	0.1333333333333	0.0666666666667	316.6179313659668	24.003643035888672
12	272.8345763683319	pulse	0	t		0.16666667	0.0666666666667	0.0	232.0	0.0333333333333	0.1333333333333	0.0666666666667	318.17866373062134	
12	273.4836006164551	response	0	b		0.16666667	0.0666666666667	0.0	232.0	0.0333333333333	0.1333333333333	0.0666666666667	318.8276879787445	
12	274.43457078933716	pulse	0	t		0.16666667	0.0666666666667	0.0	232.0	0.0333333333333	0.1333333333333	0.0666666666667	319.7786581516266	
12	276.03430247306824	pulse	0	t		0.16666667	0.0666666666667	0.0	232.0	0.0333333333333	0.1333333333333	0.0666666666667	321.37838983535767	
12	276.4573166370392	response	0	b		0.16666667	0.0666666666667	0.0	232.0	0.0333333333333	0.1333333333333	0.0666666666667	321.8014039993286	
12	277.6344509124756	pulse	0	t		0.16666667	0.0666666666667	0.0	232.0	0.0333333333333	0.1333333333333	0.0666666666667	322.978538274765	
12	279.2343764305115	pulse	0	t		0.16666667	0.0666666666667	0.0	232.0	0.0333333333333	0.1333333333333	0.0666666666667	324.5784637928009	
12	280.8344612121582	pulse	0	t		0.16666667	0.0666666666667	0.0	232.0	0.0333333333333	0.1333333333333	0.0666666666667	326.17854857444763	
12	281.61820340156555	response	0	b		0.16666667	0.0666666666667	0.0	232.0	0.0333333333333	0.1333333333333	0.0666666666667	326.962290763855	
12	282.434406042099	pulse	0	t		0.16666667	0.0666666666667	0.0	232.0	0.0333333333333	0.1333333333333	0.0666666666667	327.7784934043884	
12	284.03441095352173	pulse	0	t		0.16666667	0.0666666666667	0.0	232.0	0.0333333333333	0.1333333333333	0.0666666666667	329.37849831581116	
12	285.17154240608215	response	0	b		0.16666667	0.0666666666667	0.0	232.0	0.0333333333333	0.1333333333333	0.0666666666667	330.5156297683716	
12	285.63448905944824	pulse	0	t		0.16666667	0.0666666666667	0.0	232.0	0.0333333333333	0.1333333333333	0.0666666666667	330.97857642173767	
12	287.2344603538513	pulse	0	t		0.16666667	0.0666666666667	0.0	232.0	0.0333333333333	0.1333333333333	0.0666666666667	332.57854771614075	
12	287.55631279945374	response	0	b		0.16666667	0.0666666666667	0.0	232.0	0.0333333333333	0.1333333333333	0.0666666666667	332.90040016174316	
12	288.83456897735596	pulse	0	t		0.16666667	0.0666666666667	0.0	232.0	0.0333333333333	0.1333333333333	0.0666666666667	334.1786563396454	
12	290.43460726737976	pulse	0	t		0.16666667	0.0666666666667	0.0	232.0	0.0333333333333	0.1333333333333	0.0666666666667	335.7786946296692	
12	291.9244718551636	response	0	b		0.16666667	0.0666666666667	0.0	232.0	0.0333333333333	0.1333333333333	0.0666666666667	337.268559217453	
12	292.0344069004059	pulse	0	t		0.16666667	0.0666666666667	0.0	232.0	0.0333333333333	0.1333333333333	0.0666666666667	337.3784942626953	
12	293.6345262527466	pulse	0	t		0.16666667	0.0666666666667	0.0	232.0	0.0333333333333	0.1333333333333	0.0666666666667	338.978613615036	
12	294.1174900531769	response	0	b		0.16666667	0.0666666666667	0.0	232.0	0.0333333333333	0.1333333333333	0.0666666666667	339.4615774154663	
12	295.2345781326294	pulse	0	t		0.16666667	0.0666666666667	0.0	232.0	0.0333333333333	0.1333333333333	0.0666666666667	340.5786654949188	
13	295.27748703956604	stim	0		0	0.16666667	0.0666666666667	270.0	256.0	0.0333333333333	0.1333333333333	0.0666666666667	340.62157440185547	23.99519944190979
13	296.6554551124573	response	0	b		0.16666667	0.0666666666667	270.0	256.0	0.0333333333333	0.1333333333333	0.0666666666667	341.9995424747467	
13	296.834419965744	pulse	0	t		0.16666667	0.0666666666667	270.0	256.0	0.0333333333333	0.1333333333333	0.0666666666667	342.17850732803345	
13	298.43455362319946	pulse	0	t		0.16666667	0.0666666666667	270.0	256.0	0.0333333333333	0.1333333333333	0.0666666666667	343.7786409854889	
13	300.03464221954346	pulse	0	t		0.16666667	0.0666666666667	270.0	256.0	0.0333333333333	0.1333333333333	0.0666666666667	345.3787295818329	
13	301.40932750701904	response	0	b		0.16666667	0.0666666666667	270.0	256.0	0.0333333333333	0.1333333333333	0.0666666666667	346.7534148693085	
13	301.63448119163513	pulse	0	t		0.16666667	0.0666666666667	270.0	256.0	0.0333333333333	0.1333333333333	0.0666666666667	346.97856855392456	
13	303.2346227169037	pulse	0	t		0.16666667	0.0666666666667	270.0	256.0	0.0333333333333	0.1333333333333	0.0666666666667	348.5787100791931	
13	304.56047081947327	response	0	b		0.16666667	0.0666666666667	270.0	256.0	0.0333333333333	0.1333333333333	0.0666666666667	349.9045581817627	
13	304.834520816803	pulse	0	t		0.16666667	0.0666666666667	270.0	256.0	0.0333333333333	0.1333333333333	0.0666666666667	350.1786081790924	
13	306.4346992969513	pulse	0	t		0.16666667	0.0666666666667	270.0	256.0	0.0333333333333	0.1333333333333	0.0666666666667	351.7787866592407	
13	308.03366255760193	pulse	0	t		0.16666667	0.0666666666667	270.0	256.0	0.0333333333333	0.1333333333333	0.0666666666667	353.37774991989136	
13	309.63369154930115	pulse	0	t		0.16666667	0.0666666666667	270.0	256.0	0.0333333333333	0.1333333333333	0.0666666666667	354.9777789115906	
13	311.23364448547363	pulse	0	t		0.16666667	0.0666666666667	270.0	256.0	0.0333333333333	0.1333333333333	0.0666666666667	356.57773184776306	
13	312.8335540294647	pulse	0	t		0.16666667	0.0666666666667	270.0	256.0	0.0333333333333	0.1333333333333	0.0666666666667	358.17764139175415	
13	313.6834964752197	response	0	b		0.16666667	0.0666666666667	270.0	256.0	0.0333333333333	0.1333333333333	0.0666666666667	359.02758383750916	
13	314.43362379074097	pulse	0	t		0.16666667	0.0666666666667	270.0	256.0	0.0333333333333	0.1333333333333	0.0666666666667	359.7777111530304	
13	316.0336277484894	pulse	0	t		0.16666667	0.0666666666667	270.0	256.0	0.0333333333333	0.1333333333333	0.0666666666667	361.3777151107788	
13	317.633505821228	pulse	0	t		0.16666667	0.0666666666667	270.0	256.0	0.0333333333333	0.1333333333333	0.0666666666667	362.97759318351746	
13	318.7687921524048	response	0	b		0.16666667	0.0666666666667	270.0	256.0	0.0333333333333	0.1333333333333	0.0666666666667	364.1128795146942	
13	319.2336275577545	pulse	0	t		0.16666667	0.0666666666667	270.0	256.0	0.0333333333333	0.1333333333333	0.0666666666667	364.57771492004395	
14	319.27268648147583	stim	0		0								364.61677384376526	24.220776081085205
14	320.8396430015564	pulse	0	t									366.1837303638458	
14	321.4646978378296	response	0	b									366.808785200119	
14	322.4399015903473	pulse	0	t									367.7839889526367	
14	324.04010701179504	pulse	0	t									369.3841943740845	
14	325.64040517807007	pulse	0	t									370.9844925403595	
14	327.24064350128174	pulse	0	t									372.58473086357117	
14	328.8408718109131	pulse	0	t									374.1849591732025	
14	330.3160367012024	response	0	b									375.6601240634918	
14	330.43347573280334	pulse	0	t									375.7775630950928	
14	332.0352385044098	pulse	0	t									377.3793258666992	
14	332.3165500164032	response	0	b									377.6606373786926	
14	333.63481163978577	pulse	0	t									378.9788990020752	
14	335.23416781425476	pulse	0	t									380.5782551765442	
14	336.8346917629242	pulse	0	t									382.1787791252136	
14	338.4342739582062	pulse	0	t									383.7783613204956	
14	339.4259874820709	response	0	b									384.77007484436035	
14	340.034277677536	pulse	0	t									385.37836503982544	
14	341.63533782958984	pulse	0	t									386.9794251918793	
14	342.12630820274353	response	0	b									387.47039556503296	
14	343.23520517349243	pulse	0	t									388.57929253578186	
