trial_nr	onset	event_type	phase	response	nr_frames	bar_width	bar_refresh_time	bar_direction	start_time	bar_blank_duration	bar_blank_interval	bg_stim_refresh_time	onset_abs	duration
0	0.14155125617980957	stim	0		0								115.86280727386475	0.43303608894348145
0	0.5666513442993164	response	0	space									116.28790736198425	
1	0.574587345123291	stim	0		0								116.29584336280823	38.94092869758606
1	39.4860405921936	pulse	0	t									155.20729660987854	
1	39.51551604270935	stim	1		0								155.2367720603943	0.001543283462524414
1	39.517059326171875	stim	0		0								155.2383153438568	23.992234706878662
1	41.08105707168579	pulse	0	t									156.80231308937073	
1	42.68118453025818	pulse	0	t									158.40244054794312	
1	44.281328201293945	pulse	0	t									160.00258421897888	
1	45.881752014160156	pulse	0	t									161.6030080318451	
1	47.481815576553345	pulse	0	t									163.20307159423828	
1	49.08225655555725	pulse	0	t									164.8035125732422	
1	50.67497181892395	pulse	0	t									166.3962278366089	
1	52.27527856826782	pulse	0	t									167.99653458595276	
1	53.87562704086304	pulse	0	t									169.59688305854797	
1	54.24161386489868	response	0	b									169.96286988258362	
1	55.47496795654297	pulse	0	t									171.1962239742279	
1	57.07512664794922	pulse	0	t									172.79638266563416	
1	58.67516875267029	pulse	0	t									174.39642477035522	
1	59.70915651321411	response	0	b									175.43041253089905	
1	60.275392293930054	pulse	0	t									175.996648311615	
1	61.876009464263916	pulse	0	t									177.59726548194885	
1	62.15069222450256	response	0	b									177.8719482421875	
1	63.4759783744812	pulse	0	t									179.19723439216614	
2	63.50929403305054	stim	0		0	0.16666667	0.0666666666667	270.0	24.0	0.0333333333333	0.1333333333333	0.0666666666667	179.23055005073547	24.003442764282227
2	65.07531189918518	pulse	0	t		0.16666667	0.0666666666667	270.0	24.0	0.0333333333333	0.1333333333333	0.0666666666667	180.79656791687012	
2	65.93714809417725	response	0	b		0.16666667	0.0666666666667	270.0	24.0	0.0333333333333	0.1333333333333	0.0666666666667	181.65840411186218	
2	66.67531275749207	pulse	0	t		0.16666667	0.0666666666667	270.0	24.0	0.0333333333333	0.1333333333333	0.0666666666667	182.396568775177	
2	68.27517938613892	pulse	0	t		0.16666667	0.0666666666667	270.0	24.0	0.0333333333333	0.1333333333333	0.0666666666667	183.99643540382385	
2	69.87531900405884	pulse	0	t		0.16666667	0.0666666666667	270.0	24.0	0.0333333333333	0.1333333333333	0.0666666666667	185.59657502174377	
2	70.77165579795837	response	0	b		0.16666667	0.0666666666667	270.0	24.0	0.0333333333333	0.1333333333333	0.0666666666667	186.4929118156433	
2	71.47511887550354	pulse	0	t		0.16666667	0.0666666666667	270.0	24.0	0.0333333333333	0.1333333333333	0.0666666666667	187.19637489318848	
2	73.07531213760376	pulse	0	t		0.16666667	0.0666666666667	270.0	24.0	0.0333333333333	0.1333333333333	0.0666666666667	188.7965681552887	
2	74.67539620399475	pulse	0	t		0.16666667	0.0666666666667	270.0	24.0	0.0333333333333	0.1333333333333	0.0666666666667	190.3966522216797	
2	75.20229578018188	response	0	b		0.16666667	0.0666666666667	270.0	24.0	0.0333333333333	0.1333333333333	0.0666666666667	190.92355179786682	
2	76.2752947807312	pulse	0	t		0.16666667	0.0666666666667	270.0	24.0	0.0333333333333	0.1333333333333	0.0666666666667	191.99655079841614	
2	77.87527513504028	pulse	0	t		0.16666667	0.0666666666667	270.0	24.0	0.0333333333333	0.1333333333333	0.0666666666667	193.59653115272522	
2	79.47546982765198	pulse	0	t		0.16666667	0.0666666666667	270.0	24.0	0.0333333333333	0.1333333333333	0.0666666666667	195.1967258453369	
2	81.07525634765625	pulse	0	t		0.16666667	0.0666666666667	270.0	24.0	0.0333333333333	0.1333333333333	0.0666666666667	196.7965123653412	
2	82.67528295516968	pulse	0	t		0.16666667	0.0666666666667	270.0	24.0	0.0333333333333	0.1333333333333	0.0666666666667	198.39653897285461	
2	84.27529716491699	pulse	0	t		0.16666667	0.0666666666667	270.0	24.0	0.0333333333333	0.1333333333333	0.0666666666667	199.99655318260193	
2	85.68319725990295	response	0	b		0.16666667	0.0666666666667	270.0	24.0	0.0333333333333	0.1333333333333	0.0666666666667	201.4044532775879	
2	85.87492275238037	pulse	0	t		0.16666667	0.0666666666667	270.0	24.0	0.0333333333333	0.1333333333333	0.0666666666667	201.5961787700653	
2	87.47519254684448	pulse	0	t		0.16666667	0.0666666666667	270.0	24.0	0.0333333333333	0.1333333333333	0.0666666666667	203.19644856452942	
3	87.51273679733276	stim	0		0	0.16666667	0.0666666666667	0.0	48.0	0.0333333333333	0.1333333333333	0.0666666666667	203.2339928150177	24.00357699394226
3	88.52927708625793	response	0	b		0.16666667	0.0666666666667	0.0	48.0	0.0333333333333	0.1333333333333	0.0666666666667	204.25053310394287	
3	89.07529830932617	pulse	0	t		0.16666667	0.0666666666667	0.0	48.0	0.0333333333333	0.1333333333333	0.0666666666667	204.7965543270111	
3	90.67541790008545	pulse	0	t		0.16666667	0.0666666666667	0.0	48.0	0.0333333333333	0.1333333333333	0.0666666666667	206.39667391777039	
3	90.75714111328125	response	0	b		0.16666667	0.0666666666667	0.0	48.0	0.0333333333333	0.1333333333333	0.0666666666667	206.4783971309662	
3	92.27543377876282	pulse	0	t		0.16666667	0.0666666666667	0.0	48.0	0.0333333333333	0.1333333333333	0.0666666666667	207.99668979644775	
3	92.85921955108643	response	0	b		0.16666667	0.0666666666667	0.0	48.0	0.0333333333333	0.1333333333333	0.0666666666667	208.58047556877136	
3	93.87543320655823	pulse	0	t		0.16666667	0.0666666666667	0.0	48.0	0.0333333333333	0.1333333333333	0.0666666666667	209.59668922424316	
3	95.47546076774597	pulse	0	t		0.16666667	0.0666666666667	0.0	48.0	0.0333333333333	0.1333333333333	0.0666666666667	211.1967167854309	
3	97.07543087005615	pulse	0	t		0.16666667	0.0666666666667	0.0	48.0	0.0333333333333	0.1333333333333	0.0666666666667	212.7966868877411	
3	98.07410383224487	response	0	b		0.16666667	0.0666666666667	0.0	48.0	0.0333333333333	0.1333333333333	0.0666666666667	213.7953598499298	
3	98.67506885528564	pulse	0	t		0.16666667	0.0666666666667	0.0	48.0	0.0333333333333	0.1333333333333	0.0666666666667	214.39632487297058	
3	100.27522659301758	pulse	0	t		0.16666667	0.0666666666667	0.0	48.0	0.0333333333333	0.1333333333333	0.0666666666667	215.99648261070251	
3	101.04409861564636	response	0	b		0.16666667	0.0666666666667	0.0	48.0	0.0333333333333	0.1333333333333	0.0666666666667	216.7653546333313	
3	101.87522530555725	pulse	0	t		0.16666667	0.0666666666667	0.0	48.0	0.0333333333333	0.1333333333333	0.0666666666667	217.5964813232422	
3	103.47528290748596	pulse	0	t		0.16666667	0.0666666666667	0.0	48.0	0.0333333333333	0.1333333333333	0.0666666666667	219.1965389251709	
3	104.5499677658081	response	0	b		0.16666667	0.0666666666667	0.0	48.0	0.0333333333333	0.1333333333333	0.0666666666667	220.27122378349304	
3	105.07512950897217	pulse	0	t		0.16666667	0.0666666666667	0.0	48.0	0.0333333333333	0.1333333333333	0.0666666666667	220.7963855266571	
3	106.67535877227783	pulse	0	t		0.16666667	0.0666666666667	0.0	48.0	0.0333333333333	0.1333333333333	0.0666666666667	222.39661478996277	
3	106.69400334358215	response	0	b		0.16666667	0.0666666666667	0.0	48.0	0.0333333333333	0.1333333333333	0.0666666666667	222.4152593612671	
3	108.27534294128418	pulse	0	t		0.16666667	0.0666666666667	0.0	48.0	0.0333333333333	0.1333333333333	0.0666666666667	223.99659895896912	
3	108.75534725189209	response	0	b		0.16666667	0.0666666666667	0.0	48.0	0.0333333333333	0.1333333333333	0.0666666666667	224.47660326957703	
3	109.87525033950806	pulse	0	t		0.16666667	0.0666666666667	0.0	48.0	0.0333333333333	0.1333333333333	0.0666666666667	225.596506357193	
3	111.4753098487854	pulse	0	t		0.16666667	0.0666666666667	0.0	48.0	0.0333333333333	0.1333333333333	0.0666666666667	227.19656586647034	
4	111.51631379127502	stim	0		0	-1.0	1.0	-1.0	72.0	0.0333333333333	0.1333333333333	0.0666666666667	227.23756980895996	15.99427580833435
4	113.07559466362	pulse	0	t		-1.0	1.0	-1.0	72.0	0.0333333333333	0.1333333333333	0.0666666666667	228.79685068130493	
4	114.67520713806152	pulse	0	t		-1.0	1.0	-1.0	72.0	0.0333333333333	0.1333333333333	0.0666666666667	230.39646315574646	
4	116.27544260025024	pulse	0	t		-1.0	1.0	-1.0	72.0	0.0333333333333	0.1333333333333	0.0666666666667	231.99669861793518	
4	117.87563562393188	pulse	0	t		-1.0	1.0	-1.0	72.0	0.0333333333333	0.1333333333333	0.0666666666667	233.59689164161682	
4	118.43407773971558	response	0	b		-1.0	1.0	-1.0	72.0	0.0333333333333	0.1333333333333	0.0666666666667	234.1553337574005	
4	119.47586607933044	pulse	0	t		-1.0	1.0	-1.0	72.0	0.0333333333333	0.1333333333333	0.0666666666667	235.19712209701538	
4	120.59267783164978	response	0	b		-1.0	1.0	-1.0	72.0	0.0333333333333	0.1333333333333	0.0666666666667	236.31393384933472	
4	121.07609558105469	pulse	0	t		-1.0	1.0	-1.0	72.0	0.0333333333333	0.1333333333333	0.0666666666667	236.79735159873962	
4	122.67632341384888	pulse	0	t		-1.0	1.0	-1.0	72.0	0.0333333333333	0.1333333333333	0.0666666666667	238.3975794315338	
4	123.31807470321655	response	0	b		-1.0	1.0	-1.0	72.0	0.0333333333333	0.1333333333333	0.0666666666667	239.0393307209015	
4	124.27658653259277	pulse	0	t		-1.0	1.0	-1.0	72.0	0.0333333333333	0.1333333333333	0.0666666666667	239.9978425502777	
4	125.2101469039917	response	0	b		-1.0	1.0	-1.0	72.0	0.0333333333333	0.1333333333333	0.0666666666667	240.93140292167664	
4	125.87698531150818	pulse	0	t		-1.0	1.0	-1.0	72.0	0.0333333333333	0.1333333333333	0.0666666666667	241.59824132919312	
4	127.410884141922	response	0	b		-1.0	1.0	-1.0	72.0	0.0333333333333	0.1333333333333	0.0666666666667	243.13214015960693	
4	127.47736954689026	pulse	0	t		-1.0	1.0	-1.0	72.0	0.0333333333333	0.1333333333333	0.0666666666667	243.1986255645752	
5	127.51058959960938	stim	0		0	0.16666667	0.0666666666667	90.0	88.0	0.0333333333333	0.1333333333333	0.0666666666667	243.2318456172943	24.00336265563965
5	129.07471370697021	pulse	0	t		0.16666667	0.0666666666667	90.0	88.0	0.0333333333333	0.1333333333333	0.0666666666667	244.79596972465515	
5	129.56241631507874	response	0	b		0.16666667	0.0666666666667	90.0	88.0	0.0333333333333	0.1333333333333	0.0666666666667	245.28367233276367	
5	130.67485785484314	pulse	0	t		0.16666667	0.0666666666667	90.0	88.0	0.0333333333333	0.1333333333333	0.0666666666667	246.39611387252808	
5	131.85850048065186	response	0	b		0.16666667	0.0666666666667	90.0	88.0	0.0333333333333	0.1333333333333	0.0666666666667	247.5797564983368	
5	132.27467346191406	pulse	0	t		0.16666667	0.0666666666667	90.0	88.0	0.0333333333333	0.1333333333333	0.0666666666667	247.995929479599	
5	133.87469339370728	pulse	0	t		0.16666667	0.0666666666667	90.0	88.0	0.0333333333333	0.1333333333333	0.0666666666667	249.5959494113922	
5	134.90443539619446	response	0	b		0.16666667	0.0666666666667	90.0	88.0	0.0333333333333	0.1333333333333	0.0666666666667	250.6256914138794	
5	135.47456073760986	pulse	0	t		0.16666667	0.0666666666667	90.0	88.0	0.0333333333333	0.1333333333333	0.0666666666667	251.1958167552948	
5	137.0747892856598	pulse	0	t		0.16666667	0.0666666666667	90.0	88.0	0.0333333333333	0.1333333333333	0.0666666666667	252.79604530334473	
5	137.81069087982178	response	0	b		0.16666667	0.0666666666667	90.0	88.0	0.0333333333333	0.1333333333333	0.0666666666667	253.5319468975067	
5	138.67474842071533	pulse	0	t		0.16666667	0.0666666666667	90.0	88.0	0.0333333333333	0.1333333333333	0.0666666666667	254.39600443840027	
5	140.27491211891174	pulse	0	t		0.16666667	0.0666666666667	90.0	88.0	0.0333333333333	0.1333333333333	0.0666666666667	255.99616813659668	
5	141.12654876708984	response	0	b		0.16666667	0.0666666666667	90.0	88.0	0.0333333333333	0.1333333333333	0.0666666666667	256.8478047847748	
5	141.87459540367126	pulse	0	t		0.16666667	0.0666666666667	90.0	88.0	0.0333333333333	0.1333333333333	0.0666666666667	257.5958514213562	
5	143.4747109413147	pulse	0	t		0.16666667	0.0666666666667	90.0	88.0	0.0333333333333	0.1333333333333	0.0666666666667	259.19596695899963	
5	143.5054166316986	response	0	b		0.16666667	0.0666666666667	90.0	88.0	0.0333333333333	0.1333333333333	0.0666666666667	259.22667264938354	
5	145.07476472854614	pulse	0	t		0.16666667	0.0666666666667	90.0	88.0	0.0333333333333	0.1333333333333	0.0666666666667	260.7960207462311	
5	146.28064608573914	response	0	b		0.16666667	0.0666666666667	90.0	88.0	0.0333333333333	0.1333333333333	0.0666666666667	262.0019021034241	
5	146.67473483085632	pulse	0	t		0.16666667	0.0666666666667	90.0	88.0	0.0333333333333	0.1333333333333	0.0666666666667	262.39599084854126	
5	148.27476501464844	pulse	0	t		0.16666667	0.0666666666667	90.0	88.0	0.0333333333333	0.1333333333333	0.0666666666667	263.9960210323334	
5	149.39570927619934	response	0	b		0.16666667	0.0666666666667	90.0	88.0	0.0333333333333	0.1333333333333	0.0666666666667	265.1169652938843	
5	149.87481594085693	pulse	0	t		0.16666667	0.0666666666667	90.0	88.0	0.0333333333333	0.1333333333333	0.0666666666667	265.59607195854187	
5	151.47435593605042	pulse	0	t		0.16666667	0.0666666666667	90.0	88.0	0.0333333333333	0.1333333333333	0.0666666666667	267.19561195373535	
6	151.51395225524902	stim	0		0	0.16666667	0.0666666666667	180.0	112.0	0.0333333333333	0.1333333333333	0.0666666666667	267.23520827293396	24.003634214401245
6	151.8655400276184	response	0	b		0.16666667	0.0666666666667	180.0	112.0	0.0333333333333	0.1333333333333	0.0666666666667	267.58679604530334	
6	153.07452297210693	pulse	0	t		0.16666667	0.0666666666667	180.0	112.0	0.0333333333333	0.1333333333333	0.0666666666667	268.79577898979187	
6	154.6745343208313	pulse	0	t		0.16666667	0.0666666666667	180.0	112.0	0.0333333333333	0.1333333333333	0.0666666666667	270.39579033851624	
6	156.274644613266	pulse	0	t		0.16666667	0.0666666666667	180.0	112.0	0.0333333333333	0.1333333333333	0.0666666666667	271.9959006309509	
6	156.7445423603058	response	0	b		0.16666667	0.0666666666667	180.0	112.0	0.0333333333333	0.1333333333333	0.0666666666667	272.4657983779907	
6	157.87467908859253	pulse	0	t		0.16666667	0.0666666666667	180.0	112.0	0.0333333333333	0.1333333333333	0.0666666666667	273.59593510627747	
6	159.4747438430786	pulse	0	t		0.16666667	0.0666666666667	180.0	112.0	0.0333333333333	0.1333333333333	0.0666666666667	275.19599986076355	
6	160.20975708961487	response	0	b		0.16666667	0.0666666666667	180.0	112.0	0.0333333333333	0.1333333333333	0.0666666666667	275.9310131072998	
6	161.07443046569824	pulse	0	t		0.16666667	0.0666666666667	180.0	112.0	0.0333333333333	0.1333333333333	0.0666666666667	276.7956864833832	
6	162.67448544502258	pulse	0	t		0.16666667	0.0666666666667	180.0	112.0	0.0333333333333	0.1333333333333	0.0666666666667	278.3957414627075	
6	163.89478468894958	response	0	b		0.16666667	0.0666666666667	180.0	112.0	0.0333333333333	0.1333333333333	0.0666666666667	279.6160407066345	
6	164.27475452423096	pulse	0	t		0.16666667	0.0666666666667	180.0	112.0	0.0333333333333	0.1333333333333	0.0666666666667	279.9960105419159	
6	165.87483549118042	pulse	0	t		0.16666667	0.0666666666667	180.0	112.0	0.0333333333333	0.1333333333333	0.0666666666667	281.59609150886536	
6	167.47514820098877	pulse	0	t		0.16666667	0.0666666666667	180.0	112.0	0.0333333333333	0.1333333333333	0.0666666666667	283.1964042186737	
6	168.80952739715576	response	0	b		0.16666667	0.0666666666667	180.0	112.0	0.0333333333333	0.1333333333333	0.0666666666667	284.5307834148407	
6	169.07450318336487	pulse	0	t		0.16666667	0.0666666666667	180.0	112.0	0.0333333333333	0.1333333333333	0.0666666666667	284.7957592010498	
6	170.67478156089783	pulse	0	t		0.16666667	0.0666666666667	180.0	112.0	0.0333333333333	0.1333333333333	0.0666666666667	286.39603757858276	
6	171.0648376941681	response	0	b		0.16666667	0.0666666666667	180.0	112.0	0.0333333333333	0.1333333333333	0.0666666666667	286.786093711853	
6	172.27489137649536	pulse	0	t		0.16666667	0.0666666666667	180.0	112.0	0.0333333333333	0.1333333333333	0.0666666666667	287.9961473941803	
6	173.8748528957367	pulse	0	t		0.16666667	0.0666666666667	180.0	112.0	0.0333333333333	0.1333333333333	0.0666666666667	289.59610891342163	
6	174.40375924110413	response	0	b		0.16666667	0.0666666666667	180.0	112.0	0.0333333333333	0.1333333333333	0.0666666666667	290.12501525878906	
6	175.47487044334412	pulse	0	t		0.16666667	0.0666666666667	180.0	112.0	0.0333333333333	0.1333333333333	0.0666666666667	291.19612646102905	
7	175.51758646965027	stim	0		0	-1.0	1.0	-1.0	136.0	0.0333333333333	0.1333333333333	0.0666666666667	291.2388424873352	15.994113206863403
7	177.07619833946228	pulse	0	t		-1.0	1.0	-1.0	136.0	0.0333333333333	0.1333333333333	0.0666666666667	292.7974543571472	
7	178.6764440536499	pulse	0	t		-1.0	1.0	-1.0	136.0	0.0333333333333	0.1333333333333	0.0666666666667	294.39770007133484	
7	179.16038703918457	response	0	b		-1.0	1.0	-1.0	136.0	0.0333333333333	0.1333333333333	0.0666666666667	294.8816430568695	
7	180.27670216560364	pulse	0	t		-1.0	1.0	-1.0	136.0	0.0333333333333	0.1333333333333	0.0666666666667	295.9979581832886	
7	181.8769211769104	pulse	0	t		-1.0	1.0	-1.0	136.0	0.0333333333333	0.1333333333333	0.0666666666667	297.59817719459534	
7	182.1436686515808	response	0	b		-1.0	1.0	-1.0	136.0	0.0333333333333	0.1333333333333	0.0666666666667	297.86492466926575	
7	183.4771330356598	pulse	0	t		-1.0	1.0	-1.0	136.0	0.0333333333333	0.1333333333333	0.0666666666667	299.1983890533447	
7	185.0776011943817	pulse	0	t		-1.0	1.0	-1.0	136.0	0.0333333333333	0.1333333333333	0.0666666666667	300.79885721206665	
7	186.67790007591248	pulse	0	t		-1.0	1.0	-1.0	136.0	0.0333333333333	0.1333333333333	0.0666666666667	302.3991560935974	
7	188.26144242286682	response	0	b		-1.0	1.0	-1.0	136.0	0.0333333333333	0.1333333333333	0.0666666666667	303.98269844055176	
7	188.27824425697327	pulse	0	t		-1.0	1.0	-1.0	136.0	0.0333333333333	0.1333333333333	0.0666666666667	303.9995002746582	
7	189.87885808944702	pulse	0	t		-1.0	1.0	-1.0	136.0	0.0333333333333	0.1333333333333	0.0666666666667	305.60011410713196	
7	191.47867679595947	pulse	0	t		-1.0	1.0	-1.0	136.0	0.0333333333333	0.1333333333333	0.0666666666667	307.1999328136444	
8	191.51169967651367	stim	0		0	-1.0	1.0	-1.0	152.0	0.0333333333333	0.1333333333333	0.0666666666667	307.2329556941986	16.002578735351562
8	192.43706250190735	response	0	b		-1.0	1.0	-1.0	152.0	0.0333333333333	0.1333333333333	0.0666666666667	308.1583185195923	
8	193.07882118225098	pulse	0	t		-1.0	1.0	-1.0	152.0	0.0333333333333	0.1333333333333	0.0666666666667	308.8000771999359	
8	194.67903518676758	pulse	0	t		-1.0	1.0	-1.0	152.0	0.0333333333333	0.1333333333333	0.0666666666667	310.4002912044525	
8	196.27917742729187	pulse	0	t		-1.0	1.0	-1.0	152.0	0.0333333333333	0.1333333333333	0.0666666666667	312.0004334449768	
8	196.85453510284424	response	0	b		-1.0	1.0	-1.0	152.0	0.0333333333333	0.1333333333333	0.0666666666667	312.5757911205292	
8	197.87981820106506	pulse	0	t		-1.0	1.0	-1.0	152.0	0.0333333333333	0.1333333333333	0.0666666666667	313.60107421875	
8	199.4797558784485	pulse	0	t		-1.0	1.0	-1.0	152.0	0.0333333333333	0.1333333333333	0.0666666666667	315.2010118961334	
8	201.08025765419006	pulse	0	t		-1.0	1.0	-1.0	152.0	0.0333333333333	0.1333333333333	0.0666666666667	316.801513671875	
8	201.3549599647522	response	0	b		-1.0	1.0	-1.0	152.0	0.0333333333333	0.1333333333333	0.0666666666667	317.07621598243713	
8	202.68069076538086	pulse	0	t		-1.0	1.0	-1.0	152.0	0.0333333333333	0.1333333333333	0.0666666666667	318.4019467830658	
8	203.39712023735046	response	0	b		-1.0	1.0	-1.0	152.0	0.0333333333333	0.1333333333333	0.0666666666667	319.1183762550354	
8	204.28034591674805	pulse	0	t		-1.0	1.0	-1.0	152.0	0.0333333333333	0.1333333333333	0.0666666666667	320.001601934433	
8	205.87232732772827	response	0	b		-1.0	1.0	-1.0	152.0	0.0333333333333	0.1333333333333	0.0666666666667	321.5935833454132	
8	205.8787760734558	pulse	0	t		-1.0	1.0	-1.0	152.0	0.0333333333333	0.1333333333333	0.0666666666667	321.60003209114075	
8	207.4810812473297	pulse	0	t		-1.0	1.0	-1.0	152.0	0.0333333333333	0.1333333333333	0.0666666666667	323.20233726501465	
9	207.51427841186523	stim	0		0	0.16666667	0.0666666666667	180.0	168.0	0.0333333333333	0.1333333333333	0.0666666666667	323.23553442955017	24.003425121307373
9	209.07536840438843	pulse	0	t		0.16666667	0.0666666666667	180.0	168.0	0.0333333333333	0.1333333333333	0.0666666666667	324.79662442207336	
9	209.53493070602417	response	0	b		0.16666667	0.0666666666667	180.0	168.0	0.0333333333333	0.1333333333333	0.0666666666667	325.2561867237091	
9	210.67514777183533	pulse	0	t		0.16666667	0.0666666666667	180.0	168.0	0.0333333333333	0.1333333333333	0.0666666666667	326.39640378952026	
9	212.27497482299805	pulse	0	t		0.16666667	0.0666666666667	180.0	168.0	0.0333333333333	0.1333333333333	0.0666666666667	327.996230840683	
9	213.8751084804535	pulse	0	t		0.16666667	0.0666666666667	180.0	168.0	0.0333333333333	0.1333333333333	0.0666666666667	329.5963644981384	
9	214.33293747901917	response	0	b		0.16666667	0.0666666666667	180.0	168.0	0.0333333333333	0.1333333333333	0.0666666666667	330.0541934967041	
9	215.47512865066528	pulse	0	t		0.16666667	0.0666666666667	180.0	168.0	0.0333333333333	0.1333333333333	0.0666666666667	331.1963846683502	
9	217.0751233100891	pulse	0	t		0.16666667	0.0666666666667	180.0	168.0	0.0333333333333	0.1333333333333	0.0666666666667	332.79637932777405	
9	217.3569254875183	response	0	b		0.16666667	0.0666666666667	180.0	168.0	0.0333333333333	0.1333333333333	0.0666666666667	333.07818150520325	
9	218.67510676383972	pulse	0	t		0.16666667	0.0666666666667	180.0	168.0	0.0333333333333	0.1333333333333	0.0666666666667	334.39636278152466	
9	220.2751431465149	pulse	0	t		0.16666667	0.0666666666667	180.0	168.0	0.0333333333333	0.1333333333333	0.0666666666667	335.99639916419983	
9	221.87514781951904	pulse	0	t		0.16666667	0.0666666666667	180.0	168.0	0.0333333333333	0.1333333333333	0.0666666666667	337.596403837204	
9	222.11797308921814	response	0	b		0.16666667	0.0666666666667	180.0	168.0	0.0333333333333	0.1333333333333	0.0666666666667	337.8392291069031	
9	223.47509908676147	pulse	0	t		0.16666667	0.0666666666667	180.0	168.0	0.0333333333333	0.1333333333333	0.0666666666667	339.1963551044464	
9	225.07522678375244	pulse	0	t		0.16666667	0.0666666666667	180.0	168.0	0.0333333333333	0.1333333333333	0.0666666666667	340.7964828014374	
9	226.67516565322876	pulse	0	t		0.16666667	0.0666666666667	180.0	168.0	0.0333333333333	0.1333333333333	0.0666666666667	342.3964216709137	
9	227.42923831939697	response	0	b		0.16666667	0.0666666666667	180.0	168.0	0.0333333333333	0.1333333333333	0.0666666666667	343.1504943370819	
9	228.27541208267212	pulse	0	t		0.16666667	0.0666666666667	180.0	168.0	0.0333333333333	0.1333333333333	0.0666666666667	343.99666810035706	
9	229.87516260147095	pulse	0	t		0.16666667	0.0666666666667	180.0	168.0	0.0333333333333	0.1333333333333	0.0666666666667	345.5964186191559	
9	231.47500324249268	pulse	0	t		0.16666667	0.0666666666667	180.0	168.0	0.0333333333333	0.1333333333333	0.0666666666667	347.1962592601776	
10	231.5177035331726	stim	0		0	0.16666667	0.0666666666667	90.0	192.0	0.0333333333333	0.1333333333333	0.0666666666667	347.23895955085754	23.995192527770996
10	233.07542157173157	pulse	0	t		0.16666667	0.0666666666667	90.0	192.0	0.0333333333333	0.1333333333333	0.0666666666667	348.7966775894165	
10	233.67781329154968	response	0	b		0.16666667	0.0666666666667	90.0	192.0	0.0333333333333	0.1333333333333	0.0666666666667	349.3990693092346	
10	234.67530512809753	pulse	0	t		0.16666667	0.0666666666667	90.0	192.0	0.0333333333333	0.1333333333333	0.0666666666667	350.39656114578247	
10	236.21722412109375	response	0	b		0.16666667	0.0666666666667	90.0	192.0	0.0333333333333	0.1333333333333	0.0666666666667	351.9384801387787	
10	236.2750198841095	pulse	0	t		0.16666667	0.0666666666667	90.0	192.0	0.0333333333333	0.1333333333333	0.0666666666667	351.99627590179443	
10	237.87511730194092	pulse	0	t		0.16666667	0.0666666666667	90.0	192.0	0.0333333333333	0.1333333333333	0.0666666666667	353.59637331962585	
10	239.47528171539307	pulse	0	t		0.16666667	0.0666666666667	90.0	192.0	0.0333333333333	0.1333333333333	0.0666666666667	355.196537733078	
10	241.0752191543579	pulse	0	t		0.16666667	0.0666666666667	90.0	192.0	0.0333333333333	0.1333333333333	0.0666666666667	356.79647517204285	
10	242.67523384094238	pulse	0	t		0.16666667	0.0666666666667	90.0	192.0	0.0333333333333	0.1333333333333	0.0666666666667	358.3964898586273	
10	242.68688583374023	response	0	b		0.16666667	0.0666666666667	90.0	192.0	0.0333333333333	0.1333333333333	0.0666666666667	358.40814185142517	
10	244.27512741088867	pulse	0	t		0.16666667	0.0666666666667	90.0	192.0	0.0333333333333	0.1333333333333	0.0666666666667	359.9963834285736	
10	245.87528109550476	pulse	0	t		0.16666667	0.0666666666667	90.0	192.0	0.0333333333333	0.1333333333333	0.0666666666667	361.5965371131897	
10	247.4753007888794	pulse	0	t		0.16666667	0.0666666666667	90.0	192.0	0.0333333333333	0.1333333333333	0.0666666666667	363.19655680656433	
10	247.65507006645203	response	0	b		0.16666667	0.0666666666667	90.0	192.0	0.0333333333333	0.1333333333333	0.0666666666667	363.37632608413696	
10	249.0754120349884	pulse	0	t		0.16666667	0.0666666666667	90.0	192.0	0.0333333333333	0.1333333333333	0.0666666666667	364.79666805267334	
10	250.67519235610962	pulse	0	t		0.16666667	0.0666666666667	90.0	192.0	0.0333333333333	0.1333333333333	0.0666666666667	366.39644837379456	
10	252.27535796165466	pulse	0	t		0.16666667	0.0666666666667	90.0	192.0	0.0333333333333	0.1333333333333	0.0666666666667	367.9966139793396	
10	252.43918013572693	response	0	b		0.16666667	0.0666666666667	90.0	192.0	0.0333333333333	0.1333333333333	0.0666666666667	368.16043615341187	
10	253.87535977363586	pulse	0	t		0.16666667	0.0666666666667	90.0	192.0	0.0333333333333	0.1333333333333	0.0666666666667	369.5966157913208	
10	255.47534584999084	pulse	0	t		0.16666667	0.0666666666667	90.0	192.0	0.0333333333333	0.1333333333333	0.0666666666667	371.1966018676758	
11	255.5128960609436	stim	0		0	-1.0	1.0	-1.0	216.0	0.0333333333333	0.1333333333333	0.0666666666667	371.23415207862854	16.002655029296875
11	256.9965522289276	response	0	b		-1.0	1.0	-1.0	216.0	0.0333333333333	0.1333333333333	0.0666666666667	372.71780824661255	
11	257.0798580646515	pulse	0	t		-1.0	1.0	-1.0	216.0	0.0333333333333	0.1333333333333	0.0666666666667	372.8011140823364	
11	258.68014788627625	pulse	0	t		-1.0	1.0	-1.0	216.0	0.0333333333333	0.1333333333333	0.0666666666667	374.4014039039612	
11	259.58866715431213	response	0	b		-1.0	1.0	-1.0	216.0	0.0333333333333	0.1333333333333	0.0666666666667	375.30992317199707	
11	260.2803418636322	pulse	0	t		-1.0	1.0	-1.0	216.0	0.0333333333333	0.1333333333333	0.0666666666667	376.00159788131714	
11	261.88060235977173	pulse	0	t		-1.0	1.0	-1.0	216.0	0.0333333333333	0.1333333333333	0.0666666666667	377.60185837745667	
11	262.04730105400085	response	0	b		-1.0	1.0	-1.0	216.0	0.0333333333333	0.1333333333333	0.0666666666667	377.7685570716858	
11	263.4809076786041	pulse	0	t		-1.0	1.0	-1.0	216.0	0.0333333333333	0.1333333333333	0.0666666666667	379.20216369628906	
11	265.0815284252167	pulse	0	t		-1.0	1.0	-1.0	216.0	0.0333333333333	0.1333333333333	0.0666666666667	380.8027844429016	
11	265.1311273574829	response	0	b		-1.0	1.0	-1.0	216.0	0.0333333333333	0.1333333333333	0.0666666666667	380.85238337516785	
11	266.6817066669464	pulse	0	t		-1.0	1.0	-1.0	216.0	0.0333333333333	0.1333333333333	0.0666666666667	382.40296268463135	
11	268.2817463874817	pulse	0	t		-1.0	1.0	-1.0	216.0	0.0333333333333	0.1333333333333	0.0666666666667	384.0030024051666	
11	269.8818860054016	pulse	0	t		-1.0	1.0	-1.0	216.0	0.0333333333333	0.1333333333333	0.0666666666667	385.60314202308655	
11	271.4824688434601	pulse	0	t		-1.0	1.0	-1.0	216.0	0.0333333333333	0.1333333333333	0.0666666666667	387.203724861145	
12	271.5155510902405	stim	0		0	0.16666667	0.0666666666667	0.0	232.0	0.0333333333333	0.1333333333333	0.0666666666667	387.2368071079254	24.003674745559692
12	272.348512172699	response	0	b		0.16666667	0.0666666666667	0.0	232.0	0.0333333333333	0.1333333333333	0.0666666666667	388.0697681903839	
12	273.0755338668823	pulse	0	t		0.16666667	0.0666666666667	0.0	232.0	0.0333333333333	0.1333333333333	0.0666666666667	388.79678988456726	
12	274.67573618888855	pulse	0	t		0.16666667	0.0666666666667	0.0	232.0	0.0333333333333	0.1333333333333	0.0666666666667	390.3969922065735	
12	274.80356073379517	response	0	b		0.16666667	0.0666666666667	0.0	232.0	0.0333333333333	0.1333333333333	0.0666666666667	390.5248167514801	
12	276.2757613658905	pulse	0	t		0.16666667	0.0666666666667	0.0	232.0	0.0333333333333	0.1333333333333	0.0666666666667	391.99701738357544	
12	277.875661611557	pulse	0	t		0.16666667	0.0666666666667	0.0	232.0	0.0333333333333	0.1333333333333	0.0666666666667	393.59691762924194	
12	279.47565484046936	pulse	0	t		0.16666667	0.0666666666667	0.0	232.0	0.0333333333333	0.1333333333333	0.0666666666667	395.1969108581543	
12	281.07578897476196	pulse	0	t		0.16666667	0.0666666666667	0.0	232.0	0.0333333333333	0.1333333333333	0.0666666666667	396.7970449924469	
12	282.67569160461426	pulse	0	t		0.16666667	0.0666666666667	0.0	232.0	0.0333333333333	0.1333333333333	0.0666666666667	398.3969476222992	
12	284.2758643627167	pulse	0	t		0.16666667	0.0666666666667	0.0	232.0	0.0333333333333	0.1333333333333	0.0666666666667	399.9971203804016	
12	284.5935654640198	response	0	b		0.16666667	0.0666666666667	0.0	232.0	0.0333333333333	0.1333333333333	0.0666666666667	400.3148214817047	
12	285.87577867507935	pulse	0	t		0.16666667	0.0666666666667	0.0	232.0	0.0333333333333	0.1333333333333	0.0666666666667	401.5970346927643	
12	287.4758894443512	pulse	0	t		0.16666667	0.0666666666667	0.0	232.0	0.0333333333333	0.1333333333333	0.0666666666667	403.19714546203613	
12	288.17677760124207	response	0	b		0.16666667	0.0666666666667	0.0	232.0	0.0333333333333	0.1333333333333	0.0666666666667	403.898033618927	
12	289.07577538490295	pulse	0	t		0.16666667	0.0666666666667	0.0	232.0	0.0333333333333	0.1333333333333	0.0666666666667	404.7970314025879	
12	290.67586970329285	pulse	0	t		0.16666667	0.0666666666667	0.0	232.0	0.0333333333333	0.1333333333333	0.0666666666667	406.3971257209778	
12	290.9044177532196	response	0	b		0.16666667	0.0666666666667	0.0	232.0	0.0333333333333	0.1333333333333	0.0666666666667	406.62567377090454	
12	292.2757339477539	pulse	0	t		0.16666667	0.0666666666667	0.0	232.0	0.0333333333333	0.1333333333333	0.0666666666667	407.99698996543884	
12	293.87581300735474	pulse	0	t		0.16666667	0.0666666666667	0.0	232.0	0.0333333333333	0.1333333333333	0.0666666666667	409.5970690250397	
12	295.4759030342102	pulse	0	t		0.16666667	0.0666666666667	0.0	232.0	0.0333333333333	0.1333333333333	0.0666666666667	411.19715905189514	
13	295.51922583580017	stim	0		0	0.16666667	0.0666666666667	270.0	256.0	0.0333333333333	0.1333333333333	0.0666666666667	411.2404818534851	23.995179176330566
13	295.9112272262573	response	0	b		0.16666667	0.0666666666667	270.0	256.0	0.0333333333333	0.1333333333333	0.0666666666667	411.63248324394226	
13	297.0759246349335	pulse	0	t		0.16666667	0.0666666666667	270.0	256.0	0.0333333333333	0.1333333333333	0.0666666666667	412.7971806526184	
13	298.4837121963501	response	0	b		0.16666667	0.0666666666667	270.0	256.0	0.0333333333333	0.1333333333333	0.0666666666667	414.20496821403503	
13	298.675986289978	pulse	0	t		0.16666667	0.0666666666667	270.0	256.0	0.0333333333333	0.1333333333333	0.0666666666667	414.39724230766296	
13	300.27596402168274	pulse	0	t		0.16666667	0.0666666666667	270.0	256.0	0.0333333333333	0.1333333333333	0.0666666666667	415.9972200393677	
13	301.1985647678375	response	0	b		0.16666667	0.0666666666667	270.0	256.0	0.0333333333333	0.1333333333333	0.0666666666667	416.91982078552246	
13	301.87505412101746	pulse	0	t		0.16666667	0.0666666666667	270.0	256.0	0.0333333333333	0.1333333333333	0.0666666666667	417.5963101387024	
13	303.4749388694763	pulse	0	t		0.16666667	0.0666666666667	270.0	256.0	0.0333333333333	0.1333333333333	0.0666666666667	419.19619488716125	
13	304.8618392944336	response	0	b		0.16666667	0.0666666666667	270.0	256.0	0.0333333333333	0.1333333333333	0.0666666666667	420.58309531211853	
13	305.0749742984772	pulse	0	t		0.16666667	0.0666666666667	270.0	256.0	0.0333333333333	0.1333333333333	0.0666666666667	420.7962303161621	
13	306.6749951839447	pulse	0	t		0.16666667	0.0666666666667	270.0	256.0	0.0333333333333	0.1333333333333	0.0666666666667	422.39625120162964	
13	308.2749853134155	pulse	0	t		0.16666667	0.0666666666667	270.0	256.0	0.0333333333333	0.1333333333333	0.0666666666667	423.99624133110046	
13	308.27799463272095	response	0	b		0.16666667	0.0666666666667	270.0	256.0	0.0333333333333	0.1333333333333	0.0666666666667	423.9992506504059	
13	309.8750114440918	pulse	0	t		0.16666667	0.0666666666667	270.0	256.0	0.0333333333333	0.1333333333333	0.0666666666667	425.59626746177673	
13	311.4751696586609	pulse	0	t		0.16666667	0.0666666666667	270.0	256.0	0.0333333333333	0.1333333333333	0.0666666666667	427.1964256763458	
13	313.07516503334045	pulse	0	t		0.16666667	0.0666666666667	270.0	256.0	0.0333333333333	0.1333333333333	0.0666666666667	428.7964210510254	
13	313.8880739212036	response	0	b		0.16666667	0.0666666666667	270.0	256.0	0.0333333333333	0.1333333333333	0.0666666666667	429.60932993888855	
13	314.6749083995819	pulse	0	t		0.16666667	0.0666666666667	270.0	256.0	0.0333333333333	0.1333333333333	0.0666666666667	430.39616441726685	
13	316.2749767303467	pulse	0	t		0.16666667	0.0666666666667	270.0	256.0	0.0333333333333	0.1333333333333	0.0666666666667	431.9962327480316	
13	317.87507486343384	pulse	0	t		0.16666667	0.0666666666667	270.0	256.0	0.0333333333333	0.1333333333333	0.0666666666667	433.5963308811188	
13	319.4150342941284	response	0	b		0.16666667	0.0666666666667	270.0	256.0	0.0333333333333	0.1333333333333	0.0666666666667	435.13629031181335	
13	319.47474122047424	pulse	0	t		0.16666667	0.0666666666667	270.0	256.0	0.0333333333333	0.1333333333333	0.0666666666667	435.1959972381592	
14	319.51440501213074	stim	0		0								435.2356610298157	24.2122004032135
14	321.0815408229828	pulse	0	t									436.8027968406677	
14	322.68207812309265	pulse	0	t									438.4033341407776	
14	323.9318573474884	response	0	b									439.65311336517334	
14	324.281800031662	pulse	0	t									440.0030560493469	
14	325.88199758529663	pulse	0	t									441.60325360298157	
14	327.4758942127228	pulse	0	t									443.1971502304077	
14	327.6238660812378	response	0	b									443.34512209892273	
14	329.07529520988464	pulse	0	t									444.7965512275696	
14	330.67553448677063	pulse	0	t									446.39679050445557	
14	332.27506256103516	pulse	0	t									447.9963185787201	
14	332.39320492744446	response	0	b									448.1144609451294	
14	333.8749825954437	pulse	0	t									449.59623861312866	
14	335.475111246109	pulse	0	t									451.19636726379395	
14	337.075332403183	pulse	0	t									452.7965884208679	
14	337.2348108291626	response	0	b									452.95606684684753	
14	338.6757245063782	pulse	0	t									454.3969805240631	
14	339.56742691993713	response	0	b									455.28868293762207	
14	340.27579855918884	pulse	0	t									455.9970545768738	
14	341.8764750957489	pulse	0	t									457.59773111343384	
14	343.47630071640015	pulse	0	t									459.1975567340851	
