trial_nr	onset	event_type	phase	response	nr_frames	bar_width	bar_refresh_time	bar_direction	start_time	bar_blank_duration	bar_blank_interval	bg_stim_refresh_time	onset_abs	duration
0	0.15808391571044922	stim	0		0								11.162826299667358	0.2749791145324707
0	0.42497849464416504	response	0	space									11.429720878601074	
1	0.4330630302429199	stim	0		0								11.437805414199829	39.17692303657532
1	39.59046792984009	pulse	0	t									50.595210313797	
1	39.60998606681824	stim	1		0								50.61472845077515	0.0010552406311035156
1	39.61104130744934	stim	0		0								50.61578369140625	23.998284816741943
1	41.181113481521606	pulse	0	t									52.185855865478516	
1	42.77482771873474	pulse	0	t									53.77957010269165	
1	44.22318720817566	response	0	b									55.22792959213257	
1	44.37501311302185	pulse	0	t									55.37975549697876	
1	45.97448110580444	pulse	0	t									56.97922348976135	
1	47.57465648651123	pulse	0	t									58.57939887046814	
1	49.17481589317322	pulse	0	t									60.17955827713013	
1	50.25754141807556	response	0	b									61.26228380203247	
1	50.77444100379944	pulse	0	t									61.77918338775635	
1	52.37442064285278	pulse	0	t									63.37916302680969	
1	53.97470998764038	pulse	0	t									64.97945237159729	
1	55.5498902797699	response	0	b									66.5546326637268	
1	55.57484006881714	pulse	0	t									66.57958245277405	
1	57.17523717880249	pulse	0	t									68.1799795627594	
1	58.775439500808716	pulse	0	t									69.78018188476562	
1	60.050573110580444	response	0	b									71.05531549453735	
1	60.37565493583679	pulse	0	t									71.3803973197937	
1	61.975858211517334	pulse	0	t									72.98060059547424	
1	62.33423328399658	response	0	b									73.33897566795349	
1	63.576122522354126	pulse	0	t									74.58086490631104	
2	63.609326124191284	stim	0		0	0.16666667	0.0666666666667	270.0	24.0	0.0333333333333	0.1333333333333	0.0666666666667	74.6140685081482	24.00348711013794
2	64.42345905303955	response	0	b		0.16666667	0.0666666666667	270.0	24.0	0.0333333333333	0.1333333333333	0.0666666666667	75.42820143699646	
2	65.17442345619202	pulse	0	t		0.16666667	0.0666666666667	270.0	24.0	0.0333333333333	0.1333333333333	0.0666666666667	76.17916584014893	
2	66.77450656890869	pulse	0	t		0.16666667	0.0666666666667	270.0	24.0	0.0333333333333	0.1333333333333	0.0666666666667	77.7792489528656	
2	68.37445974349976	pulse	0	t		0.16666667	0.0666666666667	270.0	24.0	0.0333333333333	0.1333333333333	0.0666666666667	79.37920212745667	
2	69.11439633369446	response	0	b		0.16666667	0.0666666666667	270.0	24.0	0.0333333333333	0.1333333333333	0.0666666666667	80.11913871765137	
2	69.97443771362305	pulse	0	t		0.16666667	0.0666666666667	270.0	24.0	0.0333333333333	0.1333333333333	0.0666666666667	80.97918009757996	
2	71.57450294494629	pulse	0	t		0.16666667	0.0666666666667	270.0	24.0	0.0333333333333	0.1333333333333	0.0666666666667	82.5792453289032	
2	73.17452430725098	pulse	0	t		0.16666667	0.0666666666667	270.0	24.0	0.0333333333333	0.1333333333333	0.0666666666667	84.17926669120789	
2	74.77453303337097	pulse	0	t		0.16666667	0.0666666666667	270.0	24.0	0.0333333333333	0.1333333333333	0.0666666666667	85.77927541732788	
2	76.3744728565216	pulse	0	t		0.16666667	0.0666666666667	270.0	24.0	0.0333333333333	0.1333333333333	0.0666666666667	87.37921524047852	
2	77.97454309463501	pulse	0	t		0.16666667	0.0666666666667	270.0	24.0	0.0333333333333	0.1333333333333	0.0666666666667	88.97928547859192	
2	78.08648371696472	response	0	b		0.16666667	0.0666666666667	270.0	24.0	0.0333333333333	0.1333333333333	0.0666666666667	89.09122610092163	
2	79.57451558113098	pulse	0	t		0.16666667	0.0666666666667	270.0	24.0	0.0333333333333	0.1333333333333	0.0666666666667	90.57925796508789	
2	81.17455172538757	pulse	0	t		0.16666667	0.0666666666667	270.0	24.0	0.0333333333333	0.1333333333333	0.0666666666667	92.17929410934448	
2	82.77457070350647	pulse	0	t		0.16666667	0.0666666666667	270.0	24.0	0.0333333333333	0.1333333333333	0.0666666666667	93.77931308746338	
2	84.37447452545166	pulse	0	t		0.16666667	0.0666666666667	270.0	24.0	0.0333333333333	0.1333333333333	0.0666666666667	95.37921690940857	
2	85.75748300552368	response	0	b		0.16666667	0.0666666666667	270.0	24.0	0.0333333333333	0.1333333333333	0.0666666666667	96.76222538948059	
2	85.97439646720886	pulse	0	t		0.16666667	0.0666666666667	270.0	24.0	0.0333333333333	0.1333333333333	0.0666666666667	96.97913885116577	
2	87.57448935508728	pulse	0	t		0.16666667	0.0666666666667	270.0	24.0	0.0333333333333	0.1333333333333	0.0666666666667	98.57923173904419	
3	87.61281323432922	stim	0		0	0.16666667	0.0666666666667	0.0	48.0	0.0333333333333	0.1333333333333	0.0666666666667	98.61755561828613	24.003660440444946
3	89.17447018623352	pulse	0	t		0.16666667	0.0666666666667	0.0	48.0	0.0333333333333	0.1333333333333	0.0666666666667	100.17921257019043	
3	90.05047869682312	response	0	b		0.16666667	0.0666666666667	0.0	48.0	0.0333333333333	0.1333333333333	0.0666666666667	101.05522108078003	
3	90.77452325820923	pulse	0	t		0.16666667	0.0666666666667	0.0	48.0	0.0333333333333	0.1333333333333	0.0666666666667	101.77926564216614	
3	92.37444233894348	pulse	0	t		0.16666667	0.0666666666667	0.0	48.0	0.0333333333333	0.1333333333333	0.0666666666667	103.37918472290039	
3	93.97453141212463	pulse	0	t		0.16666667	0.0666666666667	0.0	48.0	0.0333333333333	0.1333333333333	0.0666666666667	104.97927379608154	
3	95.57455730438232	response	0	b		0.16666667	0.0666666666667	0.0	48.0	0.0333333333333	0.1333333333333	0.0666666666667	106.57929968833923	
3	95.57655620574951	pulse	0	t		0.16666667	0.0666666666667	0.0	48.0	0.0333333333333	0.1333333333333	0.0666666666667	106.58129858970642	
3	97.17456245422363	pulse	0	t		0.16666667	0.0666666666667	0.0	48.0	0.0333333333333	0.1333333333333	0.0666666666667	108.17930483818054	
3	98.02152347564697	response	0	b		0.16666667	0.0666666666667	0.0	48.0	0.0333333333333	0.1333333333333	0.0666666666667	109.02626585960388	
3	98.77456855773926	pulse	0	t		0.16666667	0.0666666666667	0.0	48.0	0.0333333333333	0.1333333333333	0.0666666666667	109.77931094169617	
3	100.37454175949097	pulse	0	t		0.16666667	0.0666666666667	0.0	48.0	0.0333333333333	0.1333333333333	0.0666666666667	111.37928414344788	
3	101.97459292411804	pulse	0	t		0.16666667	0.0666666666667	0.0	48.0	0.0333333333333	0.1333333333333	0.0666666666667	112.97933530807495	
3	103.35463213920593	response	0	b		0.16666667	0.0666666666667	0.0	48.0	0.0333333333333	0.1333333333333	0.0666666666667	114.35937452316284	
3	103.57456135749817	pulse	0	t		0.16666667	0.0666666666667	0.0	48.0	0.0333333333333	0.1333333333333	0.0666666666667	114.57930374145508	
3	105.1746199131012	pulse	0	t		0.16666667	0.0666666666667	0.0	48.0	0.0333333333333	0.1333333333333	0.0666666666667	116.1793622970581	
3	106.7746262550354	pulse	0	t		0.16666667	0.0666666666667	0.0	48.0	0.0333333333333	0.1333333333333	0.0666666666667	117.77936863899231	
3	108.37463474273682	pulse	0	t		0.16666667	0.0666666666667	0.0	48.0	0.0333333333333	0.1333333333333	0.0666666666667	119.37937712669373	
3	109.97470164299011	pulse	0	t		0.16666667	0.0666666666667	0.0	48.0	0.0333333333333	0.1333333333333	0.0666666666667	120.97944402694702	
3	109.99834537506104	response	0	b		0.16666667	0.0666666666667	0.0	48.0	0.0333333333333	0.1333333333333	0.0666666666667	121.00308775901794	
3	111.57471060752869	pulse	0	t		0.16666667	0.0666666666667	0.0	48.0	0.0333333333333	0.1333333333333	0.0666666666667	122.5794529914856	
4	111.61647367477417	stim	0		0	-1.0	1.0	-1.0	72.0	0.0333333333333	0.1333333333333	0.0666666666667	122.62121605873108	15.99436902999878
4	112.78341031074524	response	0	b		-1.0	1.0	-1.0	72.0	0.0333333333333	0.1333333333333	0.0666666666667	123.78815269470215	
4	113.17520308494568	pulse	0	t		-1.0	1.0	-1.0	72.0	0.0333333333333	0.1333333333333	0.0666666666667	124.17994546890259	
4	114.7754454612732	pulse	0	t		-1.0	1.0	-1.0	72.0	0.0333333333333	0.1333333333333	0.0666666666667	125.7801878452301	
4	114.85037541389465	response	0	b		-1.0	1.0	-1.0	72.0	0.0333333333333	0.1333333333333	0.0666666666667	125.85511779785156	
4	116.37578058242798	pulse	0	t		-1.0	1.0	-1.0	72.0	0.0333333333333	0.1333333333333	0.0666666666667	127.38052296638489	
4	117.97594475746155	pulse	0	t		-1.0	1.0	-1.0	72.0	0.0333333333333	0.1333333333333	0.0666666666667	128.98068714141846	
4	119.57635545730591	pulse	0	t		-1.0	1.0	-1.0	72.0	0.0333333333333	0.1333333333333	0.0666666666667	130.58109784126282	
4	121.17646169662476	pulse	0	t		-1.0	1.0	-1.0	72.0	0.0333333333333	0.1333333333333	0.0666666666667	132.18120408058167	
4	121.43483877182007	response	0	b		-1.0	1.0	-1.0	72.0	0.0333333333333	0.1333333333333	0.0666666666667	132.43958115577698	
4	122.77677869796753	pulse	0	t		-1.0	1.0	-1.0	72.0	0.0333333333333	0.1333333333333	0.0666666666667	133.78152108192444	
4	124.3769416809082	pulse	0	t		-1.0	1.0	-1.0	72.0	0.0333333333333	0.1333333333333	0.0666666666667	135.3816840648651	
4	125.3187210559845	response	0	b		-1.0	1.0	-1.0	72.0	0.0333333333333	0.1333333333333	0.0666666666667	136.3234634399414	
4	125.97721266746521	pulse	0	t		-1.0	1.0	-1.0	72.0	0.0333333333333	0.1333333333333	0.0666666666667	136.98195505142212	
4	127.57737922668457	pulse	0	t		-1.0	1.0	-1.0	72.0	0.0333333333333	0.1333333333333	0.0666666666667	138.58212161064148	
5	127.61084270477295	stim	0		0	0.16666667	0.0666666666667	90.0	88.0	0.0333333333333	0.1333333333333	0.0666666666667	138.61558508872986	24.003354787826538
5	129.17500042915344	pulse	0	t		0.16666667	0.0666666666667	90.0	88.0	0.0333333333333	0.1333333333333	0.0666666666667	140.17974281311035	
5	130.61137557029724	response	0	b		0.16666667	0.0666666666667	90.0	88.0	0.0333333333333	0.1333333333333	0.0666666666667	141.61611795425415	
5	130.7738902568817	pulse	0	t		0.16666667	0.0666666666667	90.0	88.0	0.0333333333333	0.1333333333333	0.0666666666667	141.77863264083862	
5	132.37395119667053	pulse	0	t		0.16666667	0.0666666666667	90.0	88.0	0.0333333333333	0.1333333333333	0.0666666666667	143.37869358062744	
5	133.63689351081848	response	0	b		0.16666667	0.0666666666667	90.0	88.0	0.0333333333333	0.1333333333333	0.0666666666667	144.6416358947754	
5	133.97411370277405	pulse	0	t		0.16666667	0.0666666666667	90.0	88.0	0.0333333333333	0.1333333333333	0.0666666666667	144.97885608673096	
5	135.57398080825806	pulse	0	t		0.16666667	0.0666666666667	90.0	88.0	0.0333333333333	0.1333333333333	0.0666666666667	146.57872319221497	
5	137.175039768219	pulse	0	t		0.16666667	0.0666666666667	90.0	88.0	0.0333333333333	0.1333333333333	0.0666666666667	148.1797821521759	
5	138.77400040626526	pulse	0	t		0.16666667	0.0666666666667	90.0	88.0	0.0333333333333	0.1333333333333	0.0666666666667	149.77874279022217	
5	140.37399625778198	pulse	0	t		0.16666667	0.0666666666667	90.0	88.0	0.0333333333333	0.1333333333333	0.0666666666667	151.3787386417389	
5	141.97406387329102	pulse	0	t		0.16666667	0.0666666666667	90.0	88.0	0.0333333333333	0.1333333333333	0.0666666666667	152.97880625724792	
5	142.259863615036	response	0	b		0.16666667	0.0666666666667	90.0	88.0	0.0333333333333	0.1333333333333	0.0666666666667	153.26460599899292	
5	143.5739061832428	pulse	0	t		0.16666667	0.0666666666667	90.0	88.0	0.0333333333333	0.1333333333333	0.0666666666667	154.5786485671997	
5	145.17407083511353	pulse	0	t		0.16666667	0.0666666666667	90.0	88.0	0.0333333333333	0.1333333333333	0.0666666666667	156.17881321907043	
5	146.77395343780518	pulse	0	t		0.16666667	0.0666666666667	90.0	88.0	0.0333333333333	0.1333333333333	0.0666666666667	157.77869582176208	
5	147.7159640789032	response	0	b		0.16666667	0.0666666666667	90.0	88.0	0.0333333333333	0.1333333333333	0.0666666666667	158.7207064628601	
5	148.373957157135	pulse	0	t		0.16666667	0.0666666666667	90.0	88.0	0.0333333333333	0.1333333333333	0.0666666666667	159.37869954109192	
5	149.97411942481995	pulse	0	t		0.16666667	0.0666666666667	90.0	88.0	0.0333333333333	0.1333333333333	0.0666666666667	160.97886180877686	
5	151.5739917755127	pulse	0	t		0.16666667	0.0666666666667	90.0	88.0	0.0333333333333	0.1333333333333	0.0666666666667	162.5787341594696	
6	151.6141974925995	stim	0		0	0.16666667	0.0666666666667	180.0	112.0	0.0333333333333	0.1333333333333	0.0666666666667	162.6189398765564	24.00360679626465
6	153.17395281791687	pulse	0	t		0.16666667	0.0666666666667	180.0	112.0	0.0333333333333	0.1333333333333	0.0666666666667	164.17869520187378	
6	154.7742941379547	pulse	0	t		0.16666667	0.0666666666667	180.0	112.0	0.0333333333333	0.1333333333333	0.0666666666667	165.77903652191162	
6	156.37417912483215	pulse	0	t		0.16666667	0.0666666666667	180.0	112.0	0.0333333333333	0.1333333333333	0.0666666666667	167.37892150878906	
6	157.97417616844177	pulse	0	t		0.16666667	0.0666666666667	180.0	112.0	0.0333333333333	0.1333333333333	0.0666666666667	168.97891855239868	
6	159.57394194602966	pulse	0	t		0.16666667	0.0666666666667	180.0	112.0	0.0333333333333	0.1333333333333	0.0666666666667	170.57868432998657	
6	160.72995686531067	response	0	b		0.16666667	0.0666666666667	180.0	112.0	0.0333333333333	0.1333333333333	0.0666666666667	171.73469924926758	
6	161.17405796051025	pulse	0	t		0.16666667	0.0666666666667	180.0	112.0	0.0333333333333	0.1333333333333	0.0666666666667	172.17880034446716	
6	162.77405953407288	pulse	0	t		0.16666667	0.0666666666667	180.0	112.0	0.0333333333333	0.1333333333333	0.0666666666667	173.77880191802979	
6	163.38702368736267	response	0	b		0.16666667	0.0666666666667	180.0	112.0	0.0333333333333	0.1333333333333	0.0666666666667	174.39176607131958	
6	164.3740348815918	pulse	0	t		0.16666667	0.0666666666667	180.0	112.0	0.0333333333333	0.1333333333333	0.0666666666667	175.3787772655487	
6	165.97420859336853	pulse	0	t		0.16666667	0.0666666666667	180.0	112.0	0.0333333333333	0.1333333333333	0.0666666666667	176.97895097732544	
6	167.57410883903503	pulse	0	t		0.16666667	0.0666666666667	180.0	112.0	0.0333333333333	0.1333333333333	0.0666666666667	178.57885122299194	
6	168.3610601425171	response	0	b		0.16666667	0.0666666666667	180.0	112.0	0.0333333333333	0.1333333333333	0.0666666666667	179.365802526474	
6	169.17407131195068	pulse	0	t		0.16666667	0.0666666666667	180.0	112.0	0.0333333333333	0.1333333333333	0.0666666666667	180.1788136959076	
6	170.77420926094055	pulse	0	t		0.16666667	0.0666666666667	180.0	112.0	0.0333333333333	0.1333333333333	0.0666666666667	181.77895164489746	
6	172.37412667274475	pulse	0	t		0.16666667	0.0666666666667	180.0	112.0	0.0333333333333	0.1333333333333	0.0666666666667	183.37886905670166	
6	173.9741826057434	pulse	0	t		0.16666667	0.0666666666667	180.0	112.0	0.0333333333333	0.1333333333333	0.0666666666667	184.97892498970032	
6	175.57417845726013	pulse	0	t		0.16666667	0.0666666666667	180.0	112.0	0.0333333333333	0.1333333333333	0.0666666666667	186.57892084121704	
7	175.61780428886414	stim	0		0	-1.0	1.0	-1.0	136.0	0.0333333333333	0.1333333333333	0.0666666666667	186.62254667282104	15.994039297103882
7	175.65986394882202	response	0	b		-1.0	1.0	-1.0	136.0	0.0333333333333	0.1333333333333	0.0666666666667	186.66460633277893	
7	177.17677092552185	pulse	0	t		-1.0	1.0	-1.0	136.0	0.0333333333333	0.1333333333333	0.0666666666667	188.18151330947876	
7	177.98522186279297	response	0	b		-1.0	1.0	-1.0	136.0	0.0333333333333	0.1333333333333	0.0666666666667	188.98996424674988	
7	178.77678608894348	pulse	0	t		-1.0	1.0	-1.0	136.0	0.0333333333333	0.1333333333333	0.0666666666667	189.7815284729004	
7	180.37702989578247	pulse	0	t		-1.0	1.0	-1.0	136.0	0.0333333333333	0.1333333333333	0.0666666666667	191.38177227973938	
7	181.97725749015808	pulse	0	t		-1.0	1.0	-1.0	136.0	0.0333333333333	0.1333333333333	0.0666666666667	192.981999874115	
7	183.5774700641632	pulse	0	t		-1.0	1.0	-1.0	136.0	0.0333333333333	0.1333333333333	0.0666666666667	194.58221244812012	
7	184.55263471603394	response	0	b		-1.0	1.0	-1.0	136.0	0.0333333333333	0.1333333333333	0.0666666666667	195.55737709999084	
7	185.17777705192566	pulse	0	t		-1.0	1.0	-1.0	136.0	0.0333333333333	0.1333333333333	0.0666666666667	196.18251943588257	
7	186.77806305885315	pulse	0	t		-1.0	1.0	-1.0	136.0	0.0333333333333	0.1333333333333	0.0666666666667	197.78280544281006	
7	188.37823128700256	pulse	0	t		-1.0	1.0	-1.0	136.0	0.0333333333333	0.1333333333333	0.0666666666667	199.38297367095947	
7	188.91167783737183	response	0	b		-1.0	1.0	-1.0	136.0	0.0333333333333	0.1333333333333	0.0666666666667	199.91642022132874	
7	189.97844529151917	pulse	0	t		-1.0	1.0	-1.0	136.0	0.0333333333333	0.1333333333333	0.0666666666667	200.98318767547607	
7	191.57874464988708	pulse	0	t		-1.0	1.0	-1.0	136.0	0.0333333333333	0.1333333333333	0.0666666666667	202.583487033844	
8	191.61184358596802	stim	0		0	-1.0	1.0	-1.0	152.0	0.0333333333333	0.1333333333333	0.0666666666667	202.61658596992493	16.0024311542511
8	191.67057347297668	response	0	b		-1.0	1.0	-1.0	152.0	0.0333333333333	0.1333333333333	0.0666666666667	202.6753158569336	
8	193.17894911766052	pulse	0	t		-1.0	1.0	-1.0	152.0	0.0333333333333	0.1333333333333	0.0666666666667	204.18369150161743	
8	193.50405836105347	response	0	b		-1.0	1.0	-1.0	152.0	0.0333333333333	0.1333333333333	0.0666666666667	204.50880074501038	
8	194.77916026115417	pulse	0	t		-1.0	1.0	-1.0	152.0	0.0333333333333	0.1333333333333	0.0666666666667	205.78390264511108	
8	196.25439953804016	response	0	b		-1.0	1.0	-1.0	152.0	0.0333333333333	0.1333333333333	0.0666666666667	207.25914192199707	
8	196.3794195652008	pulse	0	t		-1.0	1.0	-1.0	152.0	0.0333333333333	0.1333333333333	0.0666666666667	207.38416194915771	
8	197.9796543121338	pulse	0	t		-1.0	1.0	-1.0	152.0	0.0333333333333	0.1333333333333	0.0666666666667	208.9843966960907	
8	199.57993507385254	pulse	0	t		-1.0	1.0	-1.0	152.0	0.0333333333333	0.1333333333333	0.0666666666667	210.58467745780945	
8	199.95495510101318	response	0	b		-1.0	1.0	-1.0	152.0	0.0333333333333	0.1333333333333	0.0666666666667	210.9596974849701	
8	201.18009614944458	pulse	0	t		-1.0	1.0	-1.0	152.0	0.0333333333333	0.1333333333333	0.0666666666667	212.1848385334015	
8	202.78057646751404	pulse	0	t		-1.0	1.0	-1.0	152.0	0.0333333333333	0.1333333333333	0.0666666666667	213.78531885147095	
8	203.96384930610657	response	0	b		-1.0	1.0	-1.0	152.0	0.0333333333333	0.1333333333333	0.0666666666667	214.96859169006348	
8	204.38058018684387	pulse	0	t		-1.0	1.0	-1.0	152.0	0.0333333333333	0.1333333333333	0.0666666666667	215.38532257080078	
8	205.98083901405334	pulse	0	t		-1.0	1.0	-1.0	152.0	0.0333333333333	0.1333333333333	0.0666666666667	216.98558139801025	
8	206.07245135307312	response	0	b		-1.0	1.0	-1.0	152.0	0.0333333333333	0.1333333333333	0.0666666666667	217.07719373703003	
8	207.58118271827698	pulse	0	t		-1.0	1.0	-1.0	152.0	0.0333333333333	0.1333333333333	0.0666666666667	218.5859251022339	
9	207.61427474021912	stim	0		0	0.16666667	0.0666666666667	180.0	168.0	0.0333333333333	0.1333333333333	0.0666666666667	218.61901712417603	24.003739595413208
9	209.17454028129578	pulse	0	t		0.16666667	0.0666666666667	180.0	168.0	0.0333333333333	0.1333333333333	0.0666666666667	220.17928266525269	
9	210.6145281791687	response	0	b		0.16666667	0.0666666666667	180.0	168.0	0.0333333333333	0.1333333333333	0.0666666666667	221.6192705631256	
9	210.77448797225952	pulse	0	t		0.16666667	0.0666666666667	180.0	168.0	0.0333333333333	0.1333333333333	0.0666666666667	221.77923035621643	
9	212.37456512451172	pulse	0	t		0.16666667	0.0666666666667	180.0	168.0	0.0333333333333	0.1333333333333	0.0666666666667	223.37930750846863	
9	213.97459483146667	pulse	0	t		0.16666667	0.0666666666667	180.0	168.0	0.0333333333333	0.1333333333333	0.0666666666667	224.97933721542358	
9	215.57453441619873	pulse	0	t		0.16666667	0.0666666666667	180.0	168.0	0.0333333333333	0.1333333333333	0.0666666666667	226.57927680015564	
9	216.37949228286743	response	0	b		0.16666667	0.0666666666667	180.0	168.0	0.0333333333333	0.1333333333333	0.0666666666667	227.38423466682434	
9	217.17448091506958	pulse	0	t		0.16666667	0.0666666666667	180.0	168.0	0.0333333333333	0.1333333333333	0.0666666666667	228.1792232990265	
9	218.77460312843323	pulse	0	t		0.16666667	0.0666666666667	180.0	168.0	0.0333333333333	0.1333333333333	0.0666666666667	229.77934551239014	
9	220.217613697052	response	0	b		0.16666667	0.0666666666667	180.0	168.0	0.0333333333333	0.1333333333333	0.0666666666667	231.2223560810089	
9	220.37457180023193	pulse	0	t		0.16666667	0.0666666666667	180.0	168.0	0.0333333333333	0.1333333333333	0.0666666666667	231.37931418418884	
9	221.97464537620544	pulse	0	t		0.16666667	0.0666666666667	180.0	168.0	0.0333333333333	0.1333333333333	0.0666666666667	232.97938776016235	
9	223.57461595535278	pulse	0	t		0.16666667	0.0666666666667	180.0	168.0	0.0333333333333	0.1333333333333	0.0666666666667	234.5793583393097	
9	223.83058619499207	response	0	b		0.16666667	0.0666666666667	180.0	168.0	0.0333333333333	0.1333333333333	0.0666666666667	234.83532857894897	
9	225.17464113235474	pulse	0	t		0.16666667	0.0666666666667	180.0	168.0	0.0333333333333	0.1333333333333	0.0666666666667	236.17938351631165	
9	225.9576096534729	response	0	b		0.16666667	0.0666666666667	180.0	168.0	0.0333333333333	0.1333333333333	0.0666666666667	236.9623520374298	
9	226.77465677261353	pulse	0	t		0.16666667	0.0666666666667	180.0	168.0	0.0333333333333	0.1333333333333	0.0666666666667	237.77939915657043	
9	228.3746795654297	pulse	0	t		0.16666667	0.0666666666667	180.0	168.0	0.0333333333333	0.1333333333333	0.0666666666667	239.3794219493866	
9	229.9747121334076	pulse	0	t		0.16666667	0.0666666666667	180.0	168.0	0.0333333333333	0.1333333333333	0.0666666666667	240.9794545173645	
9	231.57469391822815	pulse	0	t		0.16666667	0.0666666666667	180.0	168.0	0.0333333333333	0.1333333333333	0.0666666666667	242.57943630218506	
10	231.61801433563232	stim	0		0	0.16666667	0.0666666666667	90.0	192.0	0.0333333333333	0.1333333333333	0.0666666666667	242.62275671958923	23.99517583847046
10	232.72566294670105	response	0	b		0.16666667	0.0666666666667	90.0	192.0	0.0333333333333	0.1333333333333	0.0666666666667	243.73040533065796	
10	233.17464351654053	pulse	0	t		0.16666667	0.0666666666667	90.0	192.0	0.0333333333333	0.1333333333333	0.0666666666667	244.17938590049744	
10	234.77480816841125	pulse	0	t		0.16666667	0.0666666666667	90.0	192.0	0.0333333333333	0.1333333333333	0.0666666666667	245.77955055236816	
10	236.37474083900452	pulse	0	t		0.16666667	0.0666666666667	90.0	192.0	0.0333333333333	0.1333333333333	0.0666666666667	247.37948322296143	
10	237.97478866577148	pulse	0	t		0.16666667	0.0666666666667	90.0	192.0	0.0333333333333	0.1333333333333	0.0666666666667	248.9795310497284	
10	239.57473134994507	pulse	0	t		0.16666667	0.0666666666667	90.0	192.0	0.0333333333333	0.1333333333333	0.0666666666667	250.57947373390198	
10	239.87266492843628	response	0	b		0.16666667	0.0666666666667	90.0	192.0	0.0333333333333	0.1333333333333	0.0666666666667	250.8774073123932	
10	241.17478108406067	pulse	0	t		0.16666667	0.0666666666667	90.0	192.0	0.0333333333333	0.1333333333333	0.0666666666667	252.17952346801758	
10	242.484721660614	response	0	b		0.16666667	0.0666666666667	90.0	192.0	0.0333333333333	0.1333333333333	0.0666666666667	253.48946404457092	
10	242.7748053073883	pulse	0	t		0.16666667	0.0666666666667	90.0	192.0	0.0333333333333	0.1333333333333	0.0666666666667	253.77954769134521	
10	244.3747696876526	pulse	0	t		0.16666667	0.0666666666667	90.0	192.0	0.0333333333333	0.1333333333333	0.0666666666667	255.3795120716095	
10	245.9453411102295	response	0	b		0.16666667	0.0666666666667	90.0	192.0	0.0333333333333	0.1333333333333	0.0666666666667	256.9500834941864	
10	245.97462725639343	pulse	0	t		0.16666667	0.0666666666667	90.0	192.0	0.0333333333333	0.1333333333333	0.0666666666667	256.97936964035034	
10	247.57475090026855	pulse	0	t		0.16666667	0.0666666666667	90.0	192.0	0.0333333333333	0.1333333333333	0.0666666666667	258.57949328422546	
10	249.17477178573608	pulse	0	t		0.16666667	0.0666666666667	90.0	192.0	0.0333333333333	0.1333333333333	0.0666666666667	260.179514169693	
10	250.7748248577118	pulse	0	t		0.16666667	0.0666666666667	90.0	192.0	0.0333333333333	0.1333333333333	0.0666666666667	261.7795672416687	
10	251.45964193344116	response	0	b		0.16666667	0.0666666666667	90.0	192.0	0.0333333333333	0.1333333333333	0.0666666666667	262.46438431739807	
10	252.3746211528778	pulse	0	t		0.16666667	0.0666666666667	90.0	192.0	0.0333333333333	0.1333333333333	0.0666666666667	263.3793635368347	
10	253.97459745407104	pulse	0	t		0.16666667	0.0666666666667	90.0	192.0	0.0333333333333	0.1333333333333	0.0666666666667	264.97933983802795	
10	255.57475399971008	pulse	0	t		0.16666667	0.0666666666667	90.0	192.0	0.0333333333333	0.1333333333333	0.0666666666667	266.579496383667	
11	255.61319017410278	stim	0		0	-1.0	1.0	-1.0	216.0	0.0333333333333	0.1333333333333	0.0666666666667	266.6179325580597	16.00240445137024
11	257.18013048171997	pulse	0	t		-1.0	1.0	-1.0	216.0	0.0333333333333	0.1333333333333	0.0666666666667	268.1848728656769	
11	258.1052632331848	response	0	b		-1.0	1.0	-1.0	216.0	0.0333333333333	0.1333333333333	0.0666666666667	269.1100056171417	
11	258.78044748306274	pulse	0	t		-1.0	1.0	-1.0	216.0	0.0333333333333	0.1333333333333	0.0666666666667	269.78518986701965	
11	260.3806040287018	pulse	0	t		-1.0	1.0	-1.0	216.0	0.0333333333333	0.1333333333333	0.0666666666667	271.3853464126587	
11	261.9809226989746	pulse	0	t		-1.0	1.0	-1.0	216.0	0.0333333333333	0.1333333333333	0.0666666666667	272.9856650829315	
11	262.7643733024597	response	0	b		-1.0	1.0	-1.0	216.0	0.0333333333333	0.1333333333333	0.0666666666667	273.7691156864166	
11	263.5811288356781	pulse	0	t		-1.0	1.0	-1.0	216.0	0.0333333333333	0.1333333333333	0.0666666666667	274.585871219635	
11	265.18131971359253	pulse	0	t		-1.0	1.0	-1.0	216.0	0.0333333333333	0.1333333333333	0.0666666666667	276.18606209754944	
11	266.78151631355286	pulse	0	t		-1.0	1.0	-1.0	216.0	0.0333333333333	0.1333333333333	0.0666666666667	277.78625869750977	
11	268.38180780410767	pulse	0	t		-1.0	1.0	-1.0	216.0	0.0333333333333	0.1333333333333	0.0666666666667	279.3865501880646	
11	269.98213958740234	pulse	0	t		-1.0	1.0	-1.0	216.0	0.0333333333333	0.1333333333333	0.0666666666667	280.98688197135925	
11	271.0905485153198	response	0	b		-1.0	1.0	-1.0	216.0	0.0333333333333	0.1333333333333	0.0666666666667	282.09529089927673	
11	271.58226561546326	pulse	0	t		-1.0	1.0	-1.0	216.0	0.0333333333333	0.1333333333333	0.0666666666667	282.58700799942017	
12	271.615594625473	stim	0		0	0.16666667	0.0666666666667	0.0	232.0	0.0333333333333	0.1333333333333	0.0666666666667	282.62033700942993	23.995312452316284
12	273.17479634284973	pulse	0	t		0.16666667	0.0666666666667	0.0	232.0	0.0333333333333	0.1333333333333	0.0666666666667	284.17953872680664	
12	274.7618112564087	response	0	b		0.16666667	0.0666666666667	0.0	232.0	0.0333333333333	0.1333333333333	0.0666666666667	285.7665536403656	
12	274.7747287750244	pulse	0	t		0.16666667	0.0666666666667	0.0	232.0	0.0333333333333	0.1333333333333	0.0666666666667	285.7794711589813	
12	276.37494468688965	pulse	0	t		0.16666667	0.0666666666667	0.0	232.0	0.0333333333333	0.1333333333333	0.0666666666667	287.37968707084656	
12	277.15989685058594	response	0	b		0.16666667	0.0666666666667	0.0	232.0	0.0333333333333	0.1333333333333	0.0666666666667	288.16463923454285	
12	277.9750907421112	pulse	0	t		0.16666667	0.0666666666667	0.0	232.0	0.0333333333333	0.1333333333333	0.0666666666667	288.9798331260681	
12	279.5749626159668	pulse	0	t		0.16666667	0.0666666666667	0.0	232.0	0.0333333333333	0.1333333333333	0.0666666666667	290.5797049999237	
12	281.1749596595764	pulse	0	t		0.16666667	0.0666666666667	0.0	232.0	0.0333333333333	0.1333333333333	0.0666666666667	292.1797020435333	
12	281.48003935813904	response	0	b		0.16666667	0.0666666666667	0.0	232.0	0.0333333333333	0.1333333333333	0.0666666666667	292.48478174209595	
12	282.7750165462494	pulse	0	t		0.16666667	0.0666666666667	0.0	232.0	0.0333333333333	0.1333333333333	0.0666666666667	293.7797589302063	
12	284.37499475479126	pulse	0	t		0.16666667	0.0666666666667	0.0	232.0	0.0333333333333	0.1333333333333	0.0666666666667	295.37973713874817	
12	284.82912397384644	response	0	b		0.16666667	0.0666666666667	0.0	232.0	0.0333333333333	0.1333333333333	0.0666666666667	295.83386635780334	
12	285.9751498699188	pulse	0	t		0.16666667	0.0666666666667	0.0	232.0	0.0333333333333	0.1333333333333	0.0666666666667	296.97989225387573	
12	287.5750093460083	pulse	0	t		0.16666667	0.0666666666667	0.0	232.0	0.0333333333333	0.1333333333333	0.0666666666667	298.5797517299652	
12	289.17500925064087	pulse	0	t		0.16666667	0.0666666666667	0.0	232.0	0.0333333333333	0.1333333333333	0.0666666666667	300.1797516345978	
12	290.7752025127411	pulse	0	t		0.16666667	0.0666666666667	0.0	232.0	0.0333333333333	0.1333333333333	0.0666666666667	301.779944896698	
12	291.66877007484436	response	0	b		0.16666667	0.0666666666667	0.0	232.0	0.0333333333333	0.1333333333333	0.0666666666667	302.67351245880127	
12	292.37500524520874	pulse	0	t		0.16666667	0.0666666666667	0.0	232.0	0.0333333333333	0.1333333333333	0.0666666666667	303.37974762916565	
12	293.97506618499756	pulse	0	t		0.16666667	0.0666666666667	0.0	232.0	0.0333333333333	0.1333333333333	0.0666666666667	304.97980856895447	
12	295.5741140842438	pulse	0	t		0.16666667	0.0666666666667	0.0	232.0	0.0333333333333	0.1333333333333	0.0666666666667	306.5788564682007	
13	295.6109070777893	stim	0		0	0.16666667	0.0666666666667	270.0	256.0	0.0333333333333	0.1333333333333	0.0666666666667	306.6156494617462	24.00351595878601
13	297.1741223335266	pulse	0	t		0.16666667	0.0666666666667	270.0	256.0	0.0333333333333	0.1333333333333	0.0666666666667	308.1788647174835	
13	297.9921407699585	response	0	b		0.16666667	0.0666666666667	270.0	256.0	0.0333333333333	0.1333333333333	0.0666666666667	308.9968831539154	
13	298.7741696834564	pulse	0	t		0.16666667	0.0666666666667	270.0	256.0	0.0333333333333	0.1333333333333	0.0666666666667	309.77891206741333	
13	300.3741762638092	pulse	0	t		0.16666667	0.0666666666667	270.0	256.0	0.0333333333333	0.1333333333333	0.0666666666667	311.3789186477661	
13	300.892128944397	response	0	b		0.16666667	0.0666666666667	270.0	256.0	0.0333333333333	0.1333333333333	0.0666666666667	311.8968713283539	
13	301.9741053581238	pulse	0	t		0.16666667	0.0666666666667	270.0	256.0	0.0333333333333	0.1333333333333	0.0666666666667	312.9788477420807	
13	303.57421875	pulse	0	t		0.16666667	0.0666666666667	270.0	256.0	0.0333333333333	0.1333333333333	0.0666666666667	314.5789611339569	
13	304.46111035346985	response	0	b		0.16666667	0.0666666666667	270.0	256.0	0.0333333333333	0.1333333333333	0.0666666666667	315.46585273742676	
13	305.1741144657135	pulse	0	t		0.16666667	0.0666666666667	270.0	256.0	0.0333333333333	0.1333333333333	0.0666666666667	316.1788568496704	
13	306.7741611003876	pulse	0	t		0.16666667	0.0666666666667	270.0	256.0	0.0333333333333	0.1333333333333	0.0666666666667	317.7789034843445	
13	307.5812096595764	response	0	b		0.16666667	0.0666666666667	270.0	256.0	0.0333333333333	0.1333333333333	0.0666666666667	318.5859520435333	
13	308.3741817474365	pulse	0	t		0.16666667	0.0666666666667	270.0	256.0	0.0333333333333	0.1333333333333	0.0666666666667	319.37892413139343	
13	309.97416520118713	pulse	0	t		0.16666667	0.0666666666667	270.0	256.0	0.0333333333333	0.1333333333333	0.0666666666667	320.97890758514404	
13	310.30419731140137	response	0	b		0.16666667	0.0666666666667	270.0	256.0	0.0333333333333	0.1333333333333	0.0666666666667	321.3089396953583	
13	311.5741591453552	pulse	0	t		0.16666667	0.0666666666667	270.0	256.0	0.0333333333333	0.1333333333333	0.0666666666667	322.57890152931213	
13	313.1742844581604	pulse	0	t		0.16666667	0.0666666666667	270.0	256.0	0.0333333333333	0.1333333333333	0.0666666666667	324.1790268421173	
13	314.7742600440979	pulse	0	t		0.16666667	0.0666666666667	270.0	256.0	0.0333333333333	0.1333333333333	0.0666666666667	325.7790024280548	
13	316.3742325305939	pulse	0	t		0.16666667	0.0666666666667	270.0	256.0	0.0333333333333	0.1333333333333	0.0666666666667	327.3789749145508	
13	316.4902765750885	response	0	b		0.16666667	0.0666666666667	270.0	256.0	0.0333333333333	0.1333333333333	0.0666666666667	327.4950189590454	
13	317.97442054748535	pulse	0	t		0.16666667	0.0666666666667	270.0	256.0	0.0333333333333	0.1333333333333	0.0666666666667	328.97916293144226	
13	319.57406783103943	pulse	0	t		0.16666667	0.0666666666667	270.0	256.0	0.0333333333333	0.1333333333333	0.0666666666667	330.57881021499634	
13	319.5929582118988	response	0	b		0.16666667	0.0666666666667	270.0	256.0	0.0333333333333	0.1333333333333	0.0666666666667	330.5977005958557	
14	319.6144230365753	stim	0		0								330.6191654205322	24.212400197982788
14	321.1814708709717	pulse	0	t									332.1862132549286	
14	322.7816870212555	pulse	0	t									333.7864294052124	
14	324.38192105293274	pulse	0	t									335.38666343688965	
14	325.97444248199463	pulse	0	t									336.97918486595154	
14	327.57436966896057	pulse	0	t									338.5791120529175	
14	329.0577404499054	response	0	b									340.0624828338623	
14	329.17439699172974	pulse	0	t									340.17913937568665	
14	330.77475237846375	pulse	0	t									341.77949476242065	
14	331.8998236656189	response	0	b									342.9045660495758	
14	332.3748948574066	pulse	0	t									343.3796372413635	
14	333.97534227371216	pulse	0	t									344.98008465766907	
14	335.57540702819824	pulse	0	t									346.58014941215515	
14	337.17559480667114	pulse	0	t									348.18033719062805	
14	338.7758414745331	pulse	0	t									349.78058385849	
14	339.3512222766876	response	0	b									350.35596466064453	
14	340.3763589859009	pulse	0	t									351.3811013698578	
14	341.9763026237488	pulse	0	t									352.9810450077057	
14	342.2346901893616	response	0	b									353.2394325733185	
14	343.57657170295715	pulse	0	t									354.58131408691406	
