trial_nr	onset	event_type	phase	response	nr_frames	bar_width	bar_refresh_time	bar_direction	start_time	bar_blank_duration	bar_blank_interval	bg_stim_refresh_time	onset_abs	duration
0	0.1665966510772705	stim	0		0								10.878180980682373	0.6166398525238037
0	0.7751965522766113	response	0	space									11.486780881881714	
1	0.7832365036010742	stim	0		0								11.494820833206177	35.83378863334656
1	36.597758054733276	pulse	0	t									47.30934238433838	
1	36.61702513694763	stim	1		0								47.328609466552734	0.0013866424560546875
1	36.61841177940369	stim	0		0								47.32999610900879	23.99885630607605
1	38.18202066421509	pulse	0	t									48.89360499382019	
1	39.5822217464447	response	0	b									50.293806076049805	
1	39.781166791915894	pulse	0	t									50.492751121520996	
1	41.38126873970032	pulse	0	t									52.09285306930542	
1	42.98180603981018	pulse	0	t									53.69339036941528	
1	44.58182430267334	pulse	0	t									55.29340863227844	
1	44.800257444381714	response	0	b									55.511841773986816	
1	46.18193340301514	pulse	0	t									56.89351773262024	
1	47.782204151153564	pulse	0	t									58.49378848075867	
1	48.13227891921997	response	0	b									58.84386324882507	
1	49.3824098110199	pulse	0	t									60.093994140625	
1	50.982645750045776	pulse	0	t									61.69423007965088	
1	51.0076961517334	response	0	b									61.7192804813385	
1	52.582884073257446	pulse	0	t									63.29446840286255	
1	53.166321992874146	response	0	b									63.87790632247925	
1	54.183170557022095	pulse	0	t									64.8947548866272	
1	55.78335976600647	pulse	0	t									66.49494409561157	
1	56.3834114074707	response	0	b									67.0949957370758	
1	57.383567094802856	pulse	0	t									68.09515142440796	
1	58.98387813568115	pulse	0	t									69.69546246528625	
1	60.58413219451904	pulse	0	t									71.29571652412415	
2	60.617268085479736	stim	0		0	0.16666667	0.0666666666667	270.0	24.0	0.0333333333333	0.1333333333333	0.0666666666667	71.32885241508484	24.003623962402344
2	62.181448459625244	pulse	0	t		0.16666667	0.0666666666667	270.0	24.0	0.0333333333333	0.1333333333333	0.0666666666667	72.89303278923035	
2	62.38832688331604	response	0	b		0.16666667	0.0666666666667	270.0	24.0	0.0333333333333	0.1333333333333	0.0666666666667	73.09991121292114	
2	63.78145456314087	pulse	0	t		0.16666667	0.0666666666667	270.0	24.0	0.0333333333333	0.1333333333333	0.0666666666667	74.49303889274597	
2	65.10847997665405	response	0	b		0.16666667	0.0666666666667	270.0	24.0	0.0333333333333	0.1333333333333	0.0666666666667	75.82006430625916	
2	65.3813865184784	pulse	0	t		0.16666667	0.0666666666667	270.0	24.0	0.0333333333333	0.1333333333333	0.0666666666667	76.0929708480835	
2	66.9815046787262	pulse	0	t		0.16666667	0.0666666666667	270.0	24.0	0.0333333333333	0.1333333333333	0.0666666666667	77.6930890083313	
2	68.21032571792603	response	0	b		0.16666667	0.0666666666667	270.0	24.0	0.0333333333333	0.1333333333333	0.0666666666667	78.92191004753113	
2	68.5815315246582	pulse	0	t		0.16666667	0.0666666666667	270.0	24.0	0.0333333333333	0.1333333333333	0.0666666666667	79.2931158542633	
2	70.18150973320007	pulse	0	t		0.16666667	0.0666666666667	270.0	24.0	0.0333333333333	0.1333333333333	0.0666666666667	80.89309406280518	
2	71.78156733512878	pulse	0	t		0.16666667	0.0666666666667	270.0	24.0	0.0333333333333	0.1333333333333	0.0666666666667	82.49315166473389	
2	73.38152122497559	pulse	0	t		0.16666667	0.0666666666667	270.0	24.0	0.0333333333333	0.1333333333333	0.0666666666667	84.09310555458069	
2	74.98154306411743	pulse	0	t		0.16666667	0.0666666666667	270.0	24.0	0.0333333333333	0.1333333333333	0.0666666666667	85.69312739372253	
2	75.56453537940979	response	0	b		0.16666667	0.0666666666667	270.0	24.0	0.0333333333333	0.1333333333333	0.0666666666667	86.27611970901489	
2	76.58147525787354	pulse	0	t		0.16666667	0.0666666666667	270.0	24.0	0.0333333333333	0.1333333333333	0.0666666666667	87.29305958747864	
2	78.18144917488098	pulse	0	t		0.16666667	0.0666666666667	270.0	24.0	0.0333333333333	0.1333333333333	0.0666666666667	88.89303350448608	
2	79.78148984909058	pulse	0	t		0.16666667	0.0666666666667	270.0	24.0	0.0333333333333	0.1333333333333	0.0666666666667	90.49307417869568	
2	79.92455387115479	response	0	b		0.16666667	0.0666666666667	270.0	24.0	0.0333333333333	0.1333333333333	0.0666666666667	90.63613820075989	
2	81.38148331642151	pulse	0	t		0.16666667	0.0666666666667	270.0	24.0	0.0333333333333	0.1333333333333	0.0666666666667	92.09306764602661	
2	82.9814682006836	pulse	0	t		0.16666667	0.0666666666667	270.0	24.0	0.0333333333333	0.1333333333333	0.0666666666667	93.6930525302887	
2	83.81742882728577	response	0	b		0.16666667	0.0666666666667	270.0	24.0	0.0333333333333	0.1333333333333	0.0666666666667	94.52901315689087	
2	84.58143281936646	pulse	0	t		0.16666667	0.0666666666667	270.0	24.0	0.0333333333333	0.1333333333333	0.0666666666667	95.29301714897156	
3	84.62089204788208	stim	0		0	0.16666667	0.0666666666667	0.0	48.0	0.0333333333333	0.1333333333333	0.0666666666667	95.33247637748718	24.003581047058105
3	86.16449451446533	response	0	b		0.16666667	0.0666666666667	0.0	48.0	0.0333333333333	0.1333333333333	0.0666666666667	96.87607884407043	
3	86.18113565444946	pulse	0	t		0.16666667	0.0666666666667	0.0	48.0	0.0333333333333	0.1333333333333	0.0666666666667	96.89271998405457	
3	87.78149032592773	pulse	0	t		0.16666667	0.0666666666667	0.0	48.0	0.0333333333333	0.1333333333333	0.0666666666667	98.49307465553284	
3	89.3815131187439	pulse	0	t		0.16666667	0.0666666666667	0.0	48.0	0.0333333333333	0.1333333333333	0.0666666666667	100.093097448349	
3	90.98152470588684	pulse	0	t		0.16666667	0.0666666666667	0.0	48.0	0.0333333333333	0.1333333333333	0.0666666666667	101.69310903549194	
3	92.58171653747559	pulse	0	t		0.16666667	0.0666666666667	0.0	48.0	0.0333333333333	0.1333333333333	0.0666666666667	103.29330086708069	
3	93.33949518203735	response	0	b		0.16666667	0.0666666666667	0.0	48.0	0.0333333333333	0.1333333333333	0.0666666666667	104.05107951164246	
3	94.18157625198364	pulse	0	t		0.16666667	0.0666666666667	0.0	48.0	0.0333333333333	0.1333333333333	0.0666666666667	104.89316058158875	
3	95.78151845932007	pulse	0	t		0.16666667	0.0666666666667	0.0	48.0	0.0333333333333	0.1333333333333	0.0666666666667	106.49310278892517	
3	97.38170862197876	pulse	0	t		0.16666667	0.0666666666667	0.0	48.0	0.0333333333333	0.1333333333333	0.0666666666667	108.09329295158386	
3	98.90558195114136	response	0	b		0.16666667	0.0666666666667	0.0	48.0	0.0333333333333	0.1333333333333	0.0666666666667	109.61716628074646	
3	98.98161697387695	pulse	0	t		0.16666667	0.0666666666667	0.0	48.0	0.0333333333333	0.1333333333333	0.0666666666667	109.69320130348206	
3	100.581618309021	pulse	0	t		0.16666667	0.0666666666667	0.0	48.0	0.0333333333333	0.1333333333333	0.0666666666667	111.2932026386261	
3	101.3705837726593	response	0	b		0.16666667	0.0666666666667	0.0	48.0	0.0333333333333	0.1333333333333	0.0666666666667	112.0821681022644	
3	102.18151688575745	pulse	0	t		0.16666667	0.0666666666667	0.0	48.0	0.0333333333333	0.1333333333333	0.0666666666667	112.89310121536255	
3	103.78167223930359	pulse	0	t		0.16666667	0.0666666666667	0.0	48.0	0.0333333333333	0.1333333333333	0.0666666666667	114.49325656890869	
3	105.19570350646973	response	0	b		0.16666667	0.0666666666667	0.0	48.0	0.0333333333333	0.1333333333333	0.0666666666667	115.90728783607483	
3	105.38160347938538	pulse	0	t		0.16666667	0.0666666666667	0.0	48.0	0.0333333333333	0.1333333333333	0.0666666666667	116.09318780899048	
3	106.98163890838623	pulse	0	t		0.16666667	0.0666666666667	0.0	48.0	0.0333333333333	0.1333333333333	0.0666666666667	117.69322323799133	
3	108.58164763450623	pulse	0	t		0.16666667	0.0666666666667	0.0	48.0	0.0333333333333	0.1333333333333	0.0666666666667	119.29323196411133	
4	108.62447309494019	stim	0		0	-1.0	1.0	-1.0	72.0	0.0333333333333	0.1333333333333	0.0666666666667	119.33605742454529	15.994214534759521
4	108.93305158615112	response	0	b		-1.0	1.0	-1.0	72.0	0.0333333333333	0.1333333333333	0.0666666666667	119.64463591575623	
4	110.18322134017944	pulse	0	t		-1.0	1.0	-1.0	72.0	0.0333333333333	0.1333333333333	0.0666666666667	120.89480566978455	
4	111.78342032432556	pulse	0	t		-1.0	1.0	-1.0	72.0	0.0333333333333	0.1333333333333	0.0666666666667	122.49500465393066	
4	113.38365626335144	pulse	0	t		-1.0	1.0	-1.0	72.0	0.0333333333333	0.1333333333333	0.0666666666667	124.09524059295654	
4	114.46722888946533	response	0	b		-1.0	1.0	-1.0	72.0	0.0333333333333	0.1333333333333	0.0666666666667	125.17881321907043	
4	114.9839882850647	pulse	0	t		-1.0	1.0	-1.0	72.0	0.0333333333333	0.1333333333333	0.0666666666667	125.6955726146698	
4	116.58420419692993	pulse	0	t		-1.0	1.0	-1.0	72.0	0.0333333333333	0.1333333333333	0.0666666666667	127.29578852653503	
4	118.18441152572632	pulse	0	t		-1.0	1.0	-1.0	72.0	0.0333333333333	0.1333333333333	0.0666666666667	128.89599585533142	
4	119.78465032577515	pulse	0	t		-1.0	1.0	-1.0	72.0	0.0333333333333	0.1333333333333	0.0666666666667	130.49623465538025	
4	121.384925365448	pulse	0	t		-1.0	1.0	-1.0	72.0	0.0333333333333	0.1333333333333	0.0666666666667	132.0965096950531	
4	122.98514986038208	pulse	0	t		-1.0	1.0	-1.0	72.0	0.0333333333333	0.1333333333333	0.0666666666667	133.69673418998718	
4	124.34367179870605	response	0	b		-1.0	1.0	-1.0	72.0	0.0333333333333	0.1333333333333	0.0666666666667	135.05525612831116	
4	124.58541679382324	pulse	0	t		-1.0	1.0	-1.0	72.0	0.0333333333333	0.1333333333333	0.0666666666667	135.29700112342834	
5	124.6186876296997	stim	0		0	0.16666667	0.0666666666667	90.0	88.0	0.0333333333333	0.1333333333333	0.0666666666667	135.3302719593048	24.003481149673462
5	126.18186283111572	pulse	0	t		0.16666667	0.0666666666667	90.0	88.0	0.0333333333333	0.1333333333333	0.0666666666667	136.89344716072083	
5	127.78185415267944	pulse	0	t		0.16666667	0.0666666666667	90.0	88.0	0.0333333333333	0.1333333333333	0.0666666666667	138.49343848228455	
5	128.3848328590393	response	0	b		0.16666667	0.0666666666667	90.0	88.0	0.0333333333333	0.1333333333333	0.0666666666667	139.0964171886444	
5	129.3820502758026	pulse	0	t		0.16666667	0.0666666666667	90.0	88.0	0.0333333333333	0.1333333333333	0.0666666666667	140.09363460540771	
5	130.97727012634277	response	0	b		0.16666667	0.0666666666667	90.0	88.0	0.0333333333333	0.1333333333333	0.0666666666667	141.68885445594788	
5	130.98273396492004	pulse	0	t		0.16666667	0.0666666666667	90.0	88.0	0.0333333333333	0.1333333333333	0.0666666666667	141.69431829452515	
5	132.5819754600525	pulse	0	t		0.16666667	0.0666666666667	90.0	88.0	0.0333333333333	0.1333333333333	0.0666666666667	143.2935597896576	
5	134.11185836791992	response	0	b		0.16666667	0.0666666666667	90.0	88.0	0.0333333333333	0.1333333333333	0.0666666666667	144.82344269752502	
5	134.18178176879883	pulse	0	t		0.16666667	0.0666666666667	90.0	88.0	0.0333333333333	0.1333333333333	0.0666666666667	144.89336609840393	
5	135.78186178207397	pulse	0	t		0.16666667	0.0666666666667	90.0	88.0	0.0333333333333	0.1333333333333	0.0666666666667	146.49344611167908	
5	137.3817822933197	pulse	0	t		0.16666667	0.0666666666667	90.0	88.0	0.0333333333333	0.1333333333333	0.0666666666667	148.0933666229248	
5	138.98180150985718	pulse	0	t		0.16666667	0.0666666666667	90.0	88.0	0.0333333333333	0.1333333333333	0.0666666666667	149.69338583946228	
5	139.90985655784607	response	0	b		0.16666667	0.0666666666667	90.0	88.0	0.0333333333333	0.1333333333333	0.0666666666667	150.62144088745117	
5	140.58212971687317	pulse	0	t		0.16666667	0.0666666666667	90.0	88.0	0.0333333333333	0.1333333333333	0.0666666666667	151.29371404647827	
5	142.18192410469055	pulse	0	t		0.16666667	0.0666666666667	90.0	88.0	0.0333333333333	0.1333333333333	0.0666666666667	152.89350843429565	
5	142.39287757873535	response	0	b		0.16666667	0.0666666666667	90.0	88.0	0.0333333333333	0.1333333333333	0.0666666666667	153.10446190834045	
5	143.78193712234497	pulse	0	t		0.16666667	0.0666666666667	90.0	88.0	0.0333333333333	0.1333333333333	0.0666666666667	154.49352145195007	
5	144.44289374351501	response	0	b		0.16666667	0.0666666666667	90.0	88.0	0.0333333333333	0.1333333333333	0.0666666666667	155.15447807312012	
5	145.38182258605957	pulse	0	t		0.16666667	0.0666666666667	90.0	88.0	0.0333333333333	0.1333333333333	0.0666666666667	156.09340691566467	
5	146.981835603714	pulse	0	t		0.16666667	0.0666666666667	90.0	88.0	0.0333333333333	0.1333333333333	0.0666666666667	157.6934199333191	
5	148.48486614227295	response	0	b		0.16666667	0.0666666666667	90.0	88.0	0.0333333333333	0.1333333333333	0.0666666666667	159.19645047187805	
5	148.58190512657166	pulse	0	t		0.16666667	0.0666666666667	90.0	88.0	0.0333333333333	0.1333333333333	0.0666666666667	159.29348945617676	
6	148.62216877937317	stim	0		0	0.16666667	0.0666666666667	180.0	112.0	0.0333333333333	0.1333333333333	0.0666666666667	159.33375310897827	23.99529504776001
6	150.18198156356812	pulse	0	t		0.16666667	0.0666666666667	180.0	112.0	0.0333333333333	0.1333333333333	0.0666666666667	160.89356589317322	
6	151.78195452690125	pulse	0	t		0.16666667	0.0666666666667	180.0	112.0	0.0333333333333	0.1333333333333	0.0666666666667	162.49353885650635	
6	153.1969985961914	response	0	b		0.16666667	0.0666666666667	180.0	112.0	0.0333333333333	0.1333333333333	0.0666666666667	163.9085829257965	
6	153.38188314437866	pulse	0	t		0.16666667	0.0666666666667	180.0	112.0	0.0333333333333	0.1333333333333	0.0666666666667	164.09346747398376	
6	154.98211669921875	pulse	0	t		0.16666667	0.0666666666667	180.0	112.0	0.0333333333333	0.1333333333333	0.0666666666667	165.69370102882385	
6	156.30310702323914	response	0	b		0.16666667	0.0666666666667	180.0	112.0	0.0333333333333	0.1333333333333	0.0666666666667	167.01469135284424	
6	156.58120250701904	pulse	0	t		0.16666667	0.0666666666667	180.0	112.0	0.0333333333333	0.1333333333333	0.0666666666667	167.29278683662415	
6	158.18113446235657	pulse	0	t		0.16666667	0.0666666666667	180.0	112.0	0.0333333333333	0.1333333333333	0.0666666666667	168.89271879196167	
6	159.78105902671814	pulse	0	t		0.16666667	0.0666666666667	180.0	112.0	0.0333333333333	0.1333333333333	0.0666666666667	170.49264335632324	
6	160.6020758152008	response	0	b		0.16666667	0.0666666666667	180.0	112.0	0.0333333333333	0.1333333333333	0.0666666666667	171.3136601448059	
6	161.38093733787537	pulse	0	t		0.16666667	0.0666666666667	180.0	112.0	0.0333333333333	0.1333333333333	0.0666666666667	172.09252166748047	
6	162.7614607810974	response	0	b		0.16666667	0.0666666666667	180.0	112.0	0.0333333333333	0.1333333333333	0.0666666666667	173.47304511070251	
6	162.98107767105103	pulse	0	t		0.16666667	0.0666666666667	180.0	112.0	0.0333333333333	0.1333333333333	0.0666666666667	173.69266200065613	
6	164.58112692832947	pulse	0	t		0.16666667	0.0666666666667	180.0	112.0	0.0333333333333	0.1333333333333	0.0666666666667	175.29271125793457	
6	165.91313099861145	response	0	b		0.16666667	0.0666666666667	180.0	112.0	0.0333333333333	0.1333333333333	0.0666666666667	176.62471532821655	
6	166.18112683296204	pulse	0	t		0.16666667	0.0666666666667	180.0	112.0	0.0333333333333	0.1333333333333	0.0666666666667	176.89271116256714	
6	167.78113555908203	pulse	0	t		0.16666667	0.0666666666667	180.0	112.0	0.0333333333333	0.1333333333333	0.0666666666667	178.49271988868713	
6	168.63724398612976	response	0	b		0.16666667	0.0666666666667	180.0	112.0	0.0333333333333	0.1333333333333	0.0666666666667	179.34882831573486	
6	169.38113117218018	pulse	0	t		0.16666667	0.0666666666667	180.0	112.0	0.0333333333333	0.1333333333333	0.0666666666667	180.09271550178528	
6	170.98112511634827	pulse	0	t		0.16666667	0.0666666666667	180.0	112.0	0.0333333333333	0.1333333333333	0.0666666666667	181.69270944595337	
6	171.10810542106628	response	0	b		0.16666667	0.0666666666667	180.0	112.0	0.0333333333333	0.1333333333333	0.0666666666667	181.8196897506714	
6	172.5811779499054	pulse	0	t		0.16666667	0.0666666666667	180.0	112.0	0.0333333333333	0.1333333333333	0.0666666666667	183.2927622795105	
7	172.61746382713318	stim	0		0	-1.0	1.0	-1.0	136.0	0.0333333333333	0.1333333333333	0.0666666666667	183.32904815673828	16.002372980117798
7	174.1844141483307	pulse	0	t		-1.0	1.0	-1.0	136.0	0.0333333333333	0.1333333333333	0.0666666666667	184.8959984779358	
7	174.64281606674194	response	0	b		-1.0	1.0	-1.0	136.0	0.0333333333333	0.1333333333333	0.0666666666667	185.35440039634705	
7	175.78473615646362	pulse	0	t		-1.0	1.0	-1.0	136.0	0.0333333333333	0.1333333333333	0.0666666666667	186.49632048606873	
7	177.3848752975464	pulse	0	t		-1.0	1.0	-1.0	136.0	0.0333333333333	0.1333333333333	0.0666666666667	188.0964596271515	
7	178.47747659683228	response	0	b		-1.0	1.0	-1.0	136.0	0.0333333333333	0.1333333333333	0.0666666666667	189.18906092643738	
7	178.9851975440979	pulse	0	t		-1.0	1.0	-1.0	136.0	0.0333333333333	0.1333333333333	0.0666666666667	189.696781873703	
7	180.58549523353577	pulse	0	t		-1.0	1.0	-1.0	136.0	0.0333333333333	0.1333333333333	0.0666666666667	191.29707956314087	
7	181.94530200958252	response	0	b		-1.0	1.0	-1.0	136.0	0.0333333333333	0.1333333333333	0.0666666666667	192.65688633918762	
7	182.18568444252014	pulse	0	t		-1.0	1.0	-1.0	136.0	0.0333333333333	0.1333333333333	0.0666666666667	192.89726877212524	
7	183.7861032485962	pulse	0	t		-1.0	1.0	-1.0	136.0	0.0333333333333	0.1333333333333	0.0666666666667	194.4976875782013	
7	185.38622069358826	pulse	0	t		-1.0	1.0	-1.0	136.0	0.0333333333333	0.1333333333333	0.0666666666667	196.09780502319336	
7	186.98643946647644	pulse	0	t		-1.0	1.0	-1.0	136.0	0.0333333333333	0.1333333333333	0.0666666666667	197.69802379608154	
7	187.47946977615356	response	0	b		-1.0	1.0	-1.0	136.0	0.0333333333333	0.1333333333333	0.0666666666667	198.19105410575867	
7	188.58671021461487	pulse	0	t		-1.0	1.0	-1.0	136.0	0.0333333333333	0.1333333333333	0.0666666666667	199.29829454421997	
8	188.61983680725098	stim	0		0	-1.0	1.0	-1.0	152.0	0.0333333333333	0.1333333333333	0.0666666666667	199.33142113685608	16.002524852752686
8	190.18738055229187	pulse	0	t		-1.0	1.0	-1.0	152.0	0.0333333333333	0.1333333333333	0.0666666666667	200.89896488189697	
8	191.05371522903442	response	0	b		-1.0	1.0	-1.0	152.0	0.0333333333333	0.1333333333333	0.0666666666667	201.76529955863953	
8	191.7872498035431	pulse	0	t		-1.0	1.0	-1.0	152.0	0.0333333333333	0.1333333333333	0.0666666666667	202.4988341331482	
8	193.38760471343994	pulse	0	t		-1.0	1.0	-1.0	152.0	0.0333333333333	0.1333333333333	0.0666666666667	204.09918904304504	
8	193.90416884422302	response	0	b		-1.0	1.0	-1.0	152.0	0.0333333333333	0.1333333333333	0.0666666666667	204.61575317382812	
8	194.98761248588562	pulse	0	t		-1.0	1.0	-1.0	152.0	0.0333333333333	0.1333333333333	0.0666666666667	205.69919681549072	
8	196.5879352092743	pulse	0	t		-1.0	1.0	-1.0	152.0	0.0333333333333	0.1333333333333	0.0666666666667	207.2995195388794	
8	197.61402297019958	response	0	b		-1.0	1.0	-1.0	152.0	0.0333333333333	0.1333333333333	0.0666666666667	208.3256072998047	
8	198.1884171962738	pulse	0	t		-1.0	1.0	-1.0	152.0	0.0333333333333	0.1333333333333	0.0666666666667	208.9000015258789	
8	199.78833627700806	pulse	0	t		-1.0	1.0	-1.0	152.0	0.0333333333333	0.1333333333333	0.0666666666667	210.49992060661316	
8	201.3816215991974	pulse	0	t		-1.0	1.0	-1.0	152.0	0.0333333333333	0.1333333333333	0.0666666666667	212.0932059288025	
8	201.75554156303406	response	0	b		-1.0	1.0	-1.0	152.0	0.0333333333333	0.1333333333333	0.0666666666667	212.46712589263916	
8	202.9820432662964	pulse	0	t		-1.0	1.0	-1.0	152.0	0.0333333333333	0.1333333333333	0.0666666666667	213.6936275959015	
8	204.58174633979797	pulse	0	t		-1.0	1.0	-1.0	152.0	0.0333333333333	0.1333333333333	0.0666666666667	215.29333066940308	
9	204.62236166000366	stim	0		0	0.16666667	0.0666666666667	180.0	168.0	0.0333333333333	0.1333333333333	0.0666666666667	215.33394598960876	24.003602027893066
9	206.1815366744995	pulse	0	t		0.16666667	0.0666666666667	180.0	168.0	0.0333333333333	0.1333333333333	0.0666666666667	216.89312100410461	
9	207.02249598503113	response	0	b		0.16666667	0.0666666666667	180.0	168.0	0.0333333333333	0.1333333333333	0.0666666666667	217.73408031463623	
9	207.78149151802063	pulse	0	t		0.16666667	0.0666666666667	180.0	168.0	0.0333333333333	0.1333333333333	0.0666666666667	218.49307584762573	
9	208.96063566207886	response	0	b		0.16666667	0.0666666666667	180.0	168.0	0.0333333333333	0.1333333333333	0.0666666666667	219.67221999168396	
9	209.381530046463	pulse	0	t		0.16666667	0.0666666666667	180.0	168.0	0.0333333333333	0.1333333333333	0.0666666666667	220.09311437606812	
9	210.9815833568573	pulse	0	t		0.16666667	0.0666666666667	180.0	168.0	0.0333333333333	0.1333333333333	0.0666666666667	221.6931676864624	
9	211.7136209011078	response	0	b		0.16666667	0.0666666666667	180.0	168.0	0.0333333333333	0.1333333333333	0.0666666666667	222.4252052307129	
9	212.58152556419373	pulse	0	t		0.16666667	0.0666666666667	180.0	168.0	0.0333333333333	0.1333333333333	0.0666666666667	223.29310989379883	
9	214.1816005706787	pulse	0	t		0.16666667	0.0666666666667	180.0	168.0	0.0333333333333	0.1333333333333	0.0666666666667	224.8931849002838	
9	215.78163623809814	pulse	0	t		0.16666667	0.0666666666667	180.0	168.0	0.0333333333333	0.1333333333333	0.0666666666667	226.49322056770325	
9	216.10357689857483	response	0	b		0.16666667	0.0666666666667	180.0	168.0	0.0333333333333	0.1333333333333	0.0666666666667	226.81516122817993	
9	217.38162422180176	pulse	0	t		0.16666667	0.0666666666667	180.0	168.0	0.0333333333333	0.1333333333333	0.0666666666667	228.09320855140686	
9	218.9816529750824	pulse	0	t		0.16666667	0.0666666666667	180.0	168.0	0.0333333333333	0.1333333333333	0.0666666666667	229.6932373046875	
9	219.09357047080994	response	0	b		0.16666667	0.0666666666667	180.0	168.0	0.0333333333333	0.1333333333333	0.0666666666667	229.80515480041504	
9	220.58179306983948	pulse	0	t		0.16666667	0.0666666666667	180.0	168.0	0.0333333333333	0.1333333333333	0.0666666666667	231.29337739944458	
9	221.61771512031555	response	0	b		0.16666667	0.0666666666667	180.0	168.0	0.0333333333333	0.1333333333333	0.0666666666667	232.32929944992065	
9	222.18181729316711	pulse	0	t		0.16666667	0.0666666666667	180.0	168.0	0.0333333333333	0.1333333333333	0.0666666666667	232.89340162277222	
9	223.78165483474731	pulse	0	t		0.16666667	0.0666666666667	180.0	168.0	0.0333333333333	0.1333333333333	0.0666666666667	234.49323916435242	
9	224.23665952682495	response	0	b		0.16666667	0.0666666666667	180.0	168.0	0.0333333333333	0.1333333333333	0.0666666666667	234.94824385643005	
9	225.3815667629242	pulse	0	t		0.16666667	0.0666666666667	180.0	168.0	0.0333333333333	0.1333333333333	0.0666666666667	236.0931510925293	
9	226.35076022148132	response	0	b		0.16666667	0.0666666666667	180.0	168.0	0.0333333333333	0.1333333333333	0.0666666666667	237.06234455108643	
9	226.98166465759277	pulse	0	t		0.16666667	0.0666666666667	180.0	168.0	0.0333333333333	0.1333333333333	0.0666666666667	237.69324898719788	
9	228.5817048549652	pulse	0	t		0.16666667	0.0666666666667	180.0	168.0	0.0333333333333	0.1333333333333	0.0666666666667	239.2932891845703	
10	228.62596368789673	stim	0		0	0.16666667	0.0666666666667	90.0	192.0	0.0333333333333	0.1333333333333	0.0666666666667	239.33754801750183	23.995251893997192
10	230.18170189857483	pulse	0	t		0.16666667	0.0666666666667	90.0	192.0	0.0333333333333	0.1333333333333	0.0666666666667	240.89328622817993	
10	231.62474155426025	response	0	b		0.16666667	0.0666666666667	90.0	192.0	0.0333333333333	0.1333333333333	0.0666666666667	242.33632588386536	
10	231.7816867828369	pulse	0	t		0.16666667	0.0666666666667	90.0	192.0	0.0333333333333	0.1333333333333	0.0666666666667	242.49327111244202	
10	233.38175916671753	pulse	0	t		0.16666667	0.0666666666667	90.0	192.0	0.0333333333333	0.1333333333333	0.0666666666667	244.09334349632263	
10	234.98177695274353	pulse	0	t		0.16666667	0.0666666666667	90.0	192.0	0.0333333333333	0.1333333333333	0.0666666666667	245.69336128234863	
10	235.55872631072998	response	0	b		0.16666667	0.0666666666667	90.0	192.0	0.0333333333333	0.1333333333333	0.0666666666667	246.27031064033508	
10	236.58179783821106	pulse	0	t		0.16666667	0.0666666666667	90.0	192.0	0.0333333333333	0.1333333333333	0.0666666666667	247.29338216781616	
10	238.18199729919434	pulse	0	t		0.16666667	0.0666666666667	90.0	192.0	0.0333333333333	0.1333333333333	0.0666666666667	248.89358162879944	
10	239.54572129249573	response	0	b		0.16666667	0.0666666666667	90.0	192.0	0.0333333333333	0.1333333333333	0.0666666666667	250.25730562210083	
10	239.78185772895813	pulse	0	t		0.16666667	0.0666666666667	90.0	192.0	0.0333333333333	0.1333333333333	0.0666666666667	250.49344205856323	
10	241.3818097114563	pulse	0	t		0.16666667	0.0666666666667	90.0	192.0	0.0333333333333	0.1333333333333	0.0666666666667	252.0933940410614	
10	241.90288925170898	response	0	b		0.16666667	0.0666666666667	90.0	192.0	0.0333333333333	0.1333333333333	0.0666666666667	252.6144735813141	
10	242.98184394836426	pulse	0	t		0.16666667	0.0666666666667	90.0	192.0	0.0333333333333	0.1333333333333	0.0666666666667	253.69342827796936	
10	244.41778206825256	response	0	b		0.16666667	0.0666666666667	90.0	192.0	0.0333333333333	0.1333333333333	0.0666666666667	255.12936639785767	
10	244.5816261768341	pulse	0	t		0.16666667	0.0666666666667	90.0	192.0	0.0333333333333	0.1333333333333	0.0666666666667	255.2932105064392	
10	246.181706905365	pulse	0	t		0.16666667	0.0666666666667	90.0	192.0	0.0333333333333	0.1333333333333	0.0666666666667	256.8932912349701	
10	247.78163528442383	pulse	0	t		0.16666667	0.0666666666667	90.0	192.0	0.0333333333333	0.1333333333333	0.0666666666667	258.49321961402893	
10	249.38171768188477	pulse	0	t		0.16666667	0.0666666666667	90.0	192.0	0.0333333333333	0.1333333333333	0.0666666666667	260.09330201148987	
10	249.9017255306244	response	0	b		0.16666667	0.0666666666667	90.0	192.0	0.0333333333333	0.1333333333333	0.0666666666667	260.6133098602295	
10	250.98172640800476	pulse	0	t		0.16666667	0.0666666666667	90.0	192.0	0.0333333333333	0.1333333333333	0.0666666666667	261.69331073760986	
10	252.25974702835083	response	0	b		0.16666667	0.0666666666667	90.0	192.0	0.0333333333333	0.1333333333333	0.0666666666667	262.97133135795593	
10	252.5817255973816	pulse	0	t		0.16666667	0.0666666666667	90.0	192.0	0.0333333333333	0.1333333333333	0.0666666666667	263.2933099269867	
11	252.62121558189392	stim	0		0	-1.0	1.0	-1.0	216.0	0.0333333333333	0.1333333333333	0.0666666666667	263.332799911499	16.002604722976685
11	254.18848609924316	pulse	0	t		-1.0	1.0	-1.0	216.0	0.0333333333333	0.1333333333333	0.0666666666667	264.90007042884827	
11	254.6809639930725	response	0	b		-1.0	1.0	-1.0	216.0	0.0333333333333	0.1333333333333	0.0666666666667	265.3925483226776	
11	255.7884202003479	pulse	0	t		-1.0	1.0	-1.0	216.0	0.0333333333333	0.1333333333333	0.0666666666667	266.500004529953	
11	257.38866209983826	pulse	0	t		-1.0	1.0	-1.0	216.0	0.0333333333333	0.1333333333333	0.0666666666667	268.10024642944336	
11	258.1054458618164	response	0	b		-1.0	1.0	-1.0	216.0	0.0333333333333	0.1333333333333	0.0666666666667	268.8170301914215	
11	258.98879885673523	pulse	0	t		-1.0	1.0	-1.0	216.0	0.0333333333333	0.1333333333333	0.0666666666667	269.70038318634033	
11	260.5826859474182	pulse	0	t		-1.0	1.0	-1.0	216.0	0.0333333333333	0.1333333333333	0.0666666666667	271.2942702770233	
11	261.8393232822418	response	0	b		-1.0	1.0	-1.0	216.0	0.0333333333333	0.1333333333333	0.0666666666667	272.5509076118469	
11	262.18205738067627	pulse	0	t		-1.0	1.0	-1.0	216.0	0.0333333333333	0.1333333333333	0.0666666666667	272.8936417102814	
11	263.78225779533386	pulse	0	t		-1.0	1.0	-1.0	216.0	0.0333333333333	0.1333333333333	0.0666666666667	274.49384212493896	
11	263.906373500824	response	0	b		-1.0	1.0	-1.0	216.0	0.0333333333333	0.1333333333333	0.0666666666667	274.6179578304291	
11	265.38267159461975	pulse	0	t		-1.0	1.0	-1.0	216.0	0.0333333333333	0.1333333333333	0.0666666666667	276.09425592422485	
11	266.98197054862976	pulse	0	t		-1.0	1.0	-1.0	216.0	0.0333333333333	0.1333333333333	0.0666666666667	277.69355487823486	
11	267.1318128108978	response	0	b		-1.0	1.0	-1.0	216.0	0.0333333333333	0.1333333333333	0.0666666666667	277.84339714050293	
11	268.5820269584656	pulse	0	t		-1.0	1.0	-1.0	216.0	0.0333333333333	0.1333333333333	0.0666666666667	279.2936112880707	
12	268.6238203048706	stim	0		0	0.16666667	0.0666666666667	0.0	232.0	0.0333333333333	0.1333333333333	0.0666666666667	279.3354046344757	23.99512505531311
12	269.3722810745239	response	0	b		0.16666667	0.0666666666667	0.0	232.0	0.0333333333333	0.1333333333333	0.0666666666667	280.083865404129	
12	270.18198251724243	pulse	0	t		0.16666667	0.0666666666667	0.0	232.0	0.0333333333333	0.1333333333333	0.0666666666667	280.89356684684753	
12	271.78222703933716	pulse	0	t		0.16666667	0.0666666666667	0.0	232.0	0.0333333333333	0.1333333333333	0.0666666666667	282.49381136894226	
12	273.382301568985	pulse	0	t		0.16666667	0.0666666666667	0.0	232.0	0.0333333333333	0.1333333333333	0.0666666666667	284.0938858985901	
12	274.85707354545593	response	0	b		0.16666667	0.0666666666667	0.0	232.0	0.0333333333333	0.1333333333333	0.0666666666667	285.56865787506104	
12	274.9819939136505	pulse	0	t		0.16666667	0.0666666666667	0.0	232.0	0.0333333333333	0.1333333333333	0.0666666666667	285.6935782432556	
12	276.58196091651917	pulse	0	t		0.16666667	0.0666666666667	0.0	232.0	0.0333333333333	0.1333333333333	0.0666666666667	287.29354524612427	
12	277.39009499549866	response	0	b		0.16666667	0.0666666666667	0.0	232.0	0.0333333333333	0.1333333333333	0.0666666666667	288.10167932510376	
12	278.18205761909485	pulse	0	t		0.16666667	0.0666666666667	0.0	232.0	0.0333333333333	0.1333333333333	0.0666666666667	288.89364194869995	
12	279.7822017669678	pulse	0	t		0.16666667	0.0666666666667	0.0	232.0	0.0333333333333	0.1333333333333	0.0666666666667	290.4937860965729	
12	280.3250894546509	response	0	b		0.16666667	0.0666666666667	0.0	232.0	0.0333333333333	0.1333333333333	0.0666666666667	291.036673784256	
12	281.38217997550964	pulse	0	t		0.16666667	0.0666666666667	0.0	232.0	0.0333333333333	0.1333333333333	0.0666666666667	292.09376430511475	
12	282.9821491241455	pulse	0	t		0.16666667	0.0666666666667	0.0	232.0	0.0333333333333	0.1333333333333	0.0666666666667	293.6937334537506	
12	284.2611002922058	response	0	b		0.16666667	0.0666666666667	0.0	232.0	0.0333333333333	0.1333333333333	0.0666666666667	294.9726846218109	
12	284.5821359157562	pulse	0	t		0.16666667	0.0666666666667	0.0	232.0	0.0333333333333	0.1333333333333	0.0666666666667	295.2937202453613	
12	286.18226766586304	pulse	0	t		0.16666667	0.0666666666667	0.0	232.0	0.0333333333333	0.1333333333333	0.0666666666667	296.89385199546814	
12	287.78216099739075	pulse	0	t		0.16666667	0.0666666666667	0.0	232.0	0.0333333333333	0.1333333333333	0.0666666666667	298.49374532699585	
12	289.38218355178833	pulse	0	t		0.16666667	0.0666666666667	0.0	232.0	0.0333333333333	0.1333333333333	0.0666666666667	300.09376788139343	
12	290.98241209983826	pulse	0	t		0.16666667	0.0666666666667	0.0	232.0	0.0333333333333	0.1333333333333	0.0666666666667	301.69399642944336	
12	292.5821967124939	pulse	0	t		0.16666667	0.0666666666667	0.0	232.0	0.0333333333333	0.1333333333333	0.0666666666667	303.293781042099	
13	292.6189453601837	stim	0		0	0.16666667	0.0666666666667	270.0	256.0	0.0333333333333	0.1333333333333	0.0666666666667	303.3305296897888	24.003474235534668
13	294.1822066307068	pulse	0	t		0.16666667	0.0666666666667	270.0	256.0	0.0333333333333	0.1333333333333	0.0666666666667	304.8937909603119	
13	294.39116382598877	response	0	b		0.16666667	0.0666666666667	270.0	256.0	0.0333333333333	0.1333333333333	0.0666666666667	305.1027481555939	
13	295.7825038433075	pulse	0	t		0.16666667	0.0666666666667	270.0	256.0	0.0333333333333	0.1333333333333	0.0666666666667	306.4940881729126	
13	296.93318271636963	response	0	b		0.16666667	0.0666666666667	270.0	256.0	0.0333333333333	0.1333333333333	0.0666666666667	307.64476704597473	
13	297.3821830749512	pulse	0	t		0.16666667	0.0666666666667	270.0	256.0	0.0333333333333	0.1333333333333	0.0666666666667	308.0937674045563	
13	298.9822680950165	pulse	0	t		0.16666667	0.0666666666667	270.0	256.0	0.0333333333333	0.1333333333333	0.0666666666667	309.6938524246216	
13	300.58207750320435	pulse	0	t		0.16666667	0.0666666666667	270.0	256.0	0.0333333333333	0.1333333333333	0.0666666666667	311.29366183280945	
13	302.18238139152527	pulse	0	t		0.16666667	0.0666666666667	270.0	256.0	0.0333333333333	0.1333333333333	0.0666666666667	312.89396572113037	
13	302.79616618156433	response	0	b		0.16666667	0.0666666666667	270.0	256.0	0.0333333333333	0.1333333333333	0.0666666666667	313.50775051116943	
13	303.78224301338196	pulse	0	t		0.16666667	0.0666666666667	270.0	256.0	0.0333333333333	0.1333333333333	0.0666666666667	314.49382734298706	
13	305.3826620578766	pulse	0	t		0.16666667	0.0666666666667	270.0	256.0	0.0333333333333	0.1333333333333	0.0666666666667	316.0942463874817	
13	306.98230028152466	pulse	0	t		0.16666667	0.0666666666667	270.0	256.0	0.0333333333333	0.1333333333333	0.0666666666667	317.69388461112976	
13	307.8343358039856	response	0	b		0.16666667	0.0666666666667	270.0	256.0	0.0333333333333	0.1333333333333	0.0666666666667	318.5459201335907	
13	308.5822374820709	pulse	0	t		0.16666667	0.0666666666667	270.0	256.0	0.0333333333333	0.1333333333333	0.0666666666667	319.293821811676	
13	310.1822454929352	pulse	0	t		0.16666667	0.0666666666667	270.0	256.0	0.0333333333333	0.1333333333333	0.0666666666667	320.8938298225403	
13	311.78230357170105	pulse	0	t		0.16666667	0.0666666666667	270.0	256.0	0.0333333333333	0.1333333333333	0.0666666666667	322.49388790130615	
13	312.4402389526367	response	0	b		0.16666667	0.0666666666667	270.0	256.0	0.0333333333333	0.1333333333333	0.0666666666667	323.1518232822418	
13	313.3822569847107	pulse	0	t		0.16666667	0.0666666666667	270.0	256.0	0.0333333333333	0.1333333333333	0.0666666666667	324.0938413143158	
13	314.98129415512085	pulse	0	t		0.16666667	0.0666666666667	270.0	256.0	0.0333333333333	0.1333333333333	0.0666666666667	325.69287848472595	
13	316.1553475856781	response	0	b		0.16666667	0.0666666666667	270.0	256.0	0.0333333333333	0.1333333333333	0.0666666666667	326.8669319152832	
13	316.58118891716003	pulse	0	t		0.16666667	0.0666666666667	270.0	256.0	0.0333333333333	0.1333333333333	0.0666666666667	327.29277324676514	
14	316.6224195957184	stim	0		0								327.3340039253235	24.212243795394897
14	318.18148708343506	pulse	0	t									328.89307141304016	
14	319.78163862228394	pulse	0	t									330.49322295188904	
14	320.16469502449036	response	0	b									330.87627935409546	
14	321.38152384757996	pulse	0	t									332.09310817718506	
14	322.9820132255554	pulse	0	t									333.6935975551605	
14	324.5823323726654	pulse	0	t									335.2939167022705	
14	326.18235039711	pulse	0	t									336.8939347267151	
14	326.74073600769043	response	0	b									337.45232033729553	
14	327.7825767993927	pulse	0	t									338.4941611289978	
14	329.3828880786896	pulse	0	t									340.0944724082947	
14	330.9830861091614	pulse	0	t									341.6946704387665	
14	332.58332324028015	pulse	0	t									343.29490756988525	
14	333.4751207828522	response	0	b									344.1867051124573	
14	334.1835594177246	pulse	0	t									344.8951437473297	
14	335.78381633758545	pulse	0	t									346.49540066719055	
14	336.0671737194061	response	0	b									346.77875804901123	
14	337.38402819633484	pulse	0	t									348.09561252593994	
14	338.0758731365204	response	0	b									348.7874574661255	
14	338.984263420105	pulse	0	t									349.6958477497101	
14	340.58449721336365	pulse	0	t									351.29608154296875	
