trial_nr	onset	event_type	phase	response	nr_frames	bar_width	bar_refresh_time	bar_direction	start_time	bar_blank_duration	bar_blank_interval	bg_stim_refresh_time	onset_abs	duration
0	0.14983344078063965	stim	0		0								91.8574206829071	15.635550022125244
0	15.777469158172607	response	0	space									107.48505640029907	
1	15.785383462905884	stim	0		0								107.49297070503235	26.27266001701355
1	42.027920961380005	pulse	0	t									133.73550820350647	
1	42.058043479919434	stim	1		0								133.7656307220459	0.0017571449279785156
1	42.05980062484741	stim	0		0								133.76738786697388	23.991523504257202
1	43.623127698898315	pulse	0	t									135.33071494102478	
1	45.22335386276245	pulse	0	t									136.93094110488892	
1	46.823683738708496	pulse	0	t									138.53127098083496	
1	48.42382001876831	pulse	0	t									140.13140726089478	
1	50.02420520782471	pulse	0	t									141.73179244995117	
1	50.07395815849304	response	0	b									141.7815454006195	
1	51.624279737472534	pulse	0	t									143.331866979599	
1	53.224518060684204	pulse	0	t									144.93210530281067	
1	54.824856996536255	pulse	0	t									146.53244423866272	
1	56.424975633621216	pulse	0	t									148.13256287574768	
1	56.7083375453949	response	0	b									148.41592478752136	
1	58.0251989364624	pulse	0	t									149.73278617858887	
1	59.50047254562378	response	0	b									151.20805978775024	
1	59.625468015670776	pulse	0	t									151.33305525779724	
1	61.22569704055786	pulse	0	t									152.93328428268433	
1	62.82603740692139	pulse	0	t									154.53362464904785	
1	64.42629218101501	pulse	0	t									156.13387942314148	
1	65.30981659889221	response	0	b									157.01740384101868	
1	66.0265543460846	pulse	0	t									157.73414158821106	
2	66.05132412910461	stim	0		0	0.16666667	0.0666666666667	270.0	24.0	0.0333333333333	0.1333333333333	0.0666666666667	157.75891137123108	24.003695011138916
2	67.62168455123901	pulse	0	t		0.16666667	0.0666666666667	270.0	24.0	0.0333333333333	0.1333333333333	0.0666666666667	159.32927179336548	
2	68.82829928398132	response	0	b		0.16666667	0.0666666666667	270.0	24.0	0.0333333333333	0.1333333333333	0.0666666666667	160.5358865261078	
2	69.22161412239075	pulse	0	t		0.16666667	0.0666666666667	270.0	24.0	0.0333333333333	0.1333333333333	0.0666666666667	160.9292013645172	
2	70.82138061523438	pulse	0	t		0.16666667	0.0666666666667	270.0	24.0	0.0333333333333	0.1333333333333	0.0666666666667	162.52896785736084	
2	72.03840899467468	response	0	b		0.16666667	0.0666666666667	270.0	24.0	0.0333333333333	0.1333333333333	0.0666666666667	163.74599623680115	
2	72.42163467407227	pulse	0	t		0.16666667	0.0666666666667	270.0	24.0	0.0333333333333	0.1333333333333	0.0666666666667	164.12922191619873	
2	74.02149391174316	pulse	0	t		0.16666667	0.0666666666667	270.0	24.0	0.0333333333333	0.1333333333333	0.0666666666667	165.72908115386963	
2	75.62172770500183	pulse	0	t		0.16666667	0.0666666666667	270.0	24.0	0.0333333333333	0.1333333333333	0.0666666666667	167.3293149471283	
2	77.22179508209229	pulse	0	t		0.16666667	0.0666666666667	270.0	24.0	0.0333333333333	0.1333333333333	0.0666666666667	168.92938232421875	
2	77.25366640090942	response	0	b		0.16666667	0.0666666666667	270.0	24.0	0.0333333333333	0.1333333333333	0.0666666666667	168.9612536430359	
2	78.82149386405945	pulse	0	t		0.16666667	0.0666666666667	270.0	24.0	0.0333333333333	0.1333333333333	0.0666666666667	170.5290811061859	
2	80.07145762443542	response	0	b		0.16666667	0.0666666666667	270.0	24.0	0.0333333333333	0.1333333333333	0.0666666666667	171.7790448665619	
2	80.42170548439026	pulse	0	t		0.16666667	0.0666666666667	270.0	24.0	0.0333333333333	0.1333333333333	0.0666666666667	172.12929272651672	
2	82.02175235748291	pulse	0	t		0.16666667	0.0666666666667	270.0	24.0	0.0333333333333	0.1333333333333	0.0666666666667	173.72933959960938	
2	83.62182855606079	pulse	0	t		0.16666667	0.0666666666667	270.0	24.0	0.0333333333333	0.1333333333333	0.0666666666667	175.32941579818726	
2	85.22179460525513	pulse	0	t		0.16666667	0.0666666666667	270.0	24.0	0.0333333333333	0.1333333333333	0.0666666666667	176.9293818473816	
2	86.82172060012817	pulse	0	t		0.16666667	0.0666666666667	270.0	24.0	0.0333333333333	0.1333333333333	0.0666666666667	178.52930784225464	
2	88.42176651954651	pulse	0	t		0.16666667	0.0666666666667	270.0	24.0	0.0333333333333	0.1333333333333	0.0666666666667	180.12935376167297	
2	89.25147771835327	response	0	b		0.16666667	0.0666666666667	270.0	24.0	0.0333333333333	0.1333333333333	0.0666666666667	180.95906496047974	
2	90.02154517173767	pulse	0	t		0.16666667	0.0666666666667	270.0	24.0	0.0333333333333	0.1333333333333	0.0666666666667	181.72913241386414	
3	90.05501914024353	stim	0		0	0.16666667	0.0666666666667	0.0	48.0	0.0333333333333	0.1333333333333	0.0666666666667	181.76260638237	24.003455638885498
3	91.62161946296692	pulse	0	t		0.16666667	0.0666666666667	0.0	48.0	0.0333333333333	0.1333333333333	0.0666666666667	183.32920670509338	
3	92.04262661933899	response	0	b		0.16666667	0.0666666666667	0.0	48.0	0.0333333333333	0.1333333333333	0.0666666666667	183.75021386146545	
3	93.22155141830444	pulse	0	t		0.16666667	0.0666666666667	0.0	48.0	0.0333333333333	0.1333333333333	0.0666666666667	184.9291386604309	
3	94.82139754295349	pulse	0	t		0.16666667	0.0666666666667	0.0	48.0	0.0333333333333	0.1333333333333	0.0666666666667	186.52898478507996	
3	96.42152428627014	pulse	0	t		0.16666667	0.0666666666667	0.0	48.0	0.0333333333333	0.1333333333333	0.0666666666667	188.1291115283966	
3	98.02159762382507	pulse	0	t		0.16666667	0.0666666666667	0.0	48.0	0.0333333333333	0.1333333333333	0.0666666666667	189.72918486595154	
3	99.62156677246094	pulse	0	t		0.16666667	0.0666666666667	0.0	48.0	0.0333333333333	0.1333333333333	0.0666666666667	191.3291540145874	
3	101.22154092788696	pulse	0	t		0.16666667	0.0666666666667	0.0	48.0	0.0333333333333	0.1333333333333	0.0666666666667	192.92912817001343	
3	102.77359700202942	response	0	b		0.16666667	0.0666666666667	0.0	48.0	0.0333333333333	0.1333333333333	0.0666666666667	194.48118424415588	
3	102.82155323028564	pulse	0	t		0.16666667	0.0666666666667	0.0	48.0	0.0333333333333	0.1333333333333	0.0666666666667	194.5291404724121	
3	104.42156338691711	pulse	0	t		0.16666667	0.0666666666667	0.0	48.0	0.0333333333333	0.1333333333333	0.0666666666667	196.12915062904358	
3	106.02160334587097	pulse	0	t		0.16666667	0.0666666666667	0.0	48.0	0.0333333333333	0.1333333333333	0.0666666666667	197.72919058799744	
3	106.38366675376892	response	0	b		0.16666667	0.0666666666667	0.0	48.0	0.0333333333333	0.1333333333333	0.0666666666667	198.09125399589539	
3	107.62170124053955	pulse	0	t		0.16666667	0.0666666666667	0.0	48.0	0.0333333333333	0.1333333333333	0.0666666666667	199.32928848266602	
3	109.22163891792297	pulse	0	t		0.16666667	0.0666666666667	0.0	48.0	0.0333333333333	0.1333333333333	0.0666666666667	200.92922616004944	
3	110.82168459892273	pulse	0	t		0.16666667	0.0666666666667	0.0	48.0	0.0333333333333	0.1333333333333	0.0666666666667	202.5292718410492	
3	112.42169165611267	pulse	0	t		0.16666667	0.0666666666667	0.0	48.0	0.0333333333333	0.1333333333333	0.0666666666667	204.12927889823914	
3	114.02177000045776	pulse	0	t		0.16666667	0.0666666666667	0.0	48.0	0.0333333333333	0.1333333333333	0.0666666666667	205.72935724258423	
4	114.05847477912903	stim	0		0	-1.0	1.0	-1.0	72.0	0.0333333333333	0.1333333333333	0.0666666666667	205.7660620212555	15.994138717651367
4	115.62554097175598	pulse	0	t		-1.0	1.0	-1.0	72.0	0.0333333333333	0.1333333333333	0.0666666666667	207.33312821388245	
4	115.80050897598267	response	0	b		-1.0	1.0	-1.0	72.0	0.0333333333333	0.1333333333333	0.0666666666667	207.50809621810913	
4	117.22580623626709	pulse	0	t		-1.0	1.0	-1.0	72.0	0.0333333333333	0.1333333333333	0.0666666666667	208.93339347839355	
4	118.82597994804382	pulse	0	t		-1.0	1.0	-1.0	72.0	0.0333333333333	0.1333333333333	0.0666666666667	210.5335671901703	
4	119.11775064468384	response	0	b		-1.0	1.0	-1.0	72.0	0.0333333333333	0.1333333333333	0.0666666666667	210.8253378868103	
4	120.42630100250244	pulse	0	t		-1.0	1.0	-1.0	72.0	0.0333333333333	0.1333333333333	0.0666666666667	212.1338882446289	
4	122.02655553817749	pulse	0	t		-1.0	1.0	-1.0	72.0	0.0333333333333	0.1333333333333	0.0666666666667	213.73414278030396	
4	123.36022162437439	response	0	b		-1.0	1.0	-1.0	72.0	0.0333333333333	0.1333333333333	0.0666666666667	215.06780886650085	
4	123.62677121162415	pulse	0	t		-1.0	1.0	-1.0	72.0	0.0333333333333	0.1333333333333	0.0666666666667	215.3343584537506	
4	125.22703170776367	pulse	0	t		-1.0	1.0	-1.0	72.0	0.0333333333333	0.1333333333333	0.0666666666667	216.93461894989014	
4	126.27730107307434	response	0	b		-1.0	1.0	-1.0	72.0	0.0333333333333	0.1333333333333	0.0666666666667	217.9848883152008	
4	126.82728981971741	pulse	0	t		-1.0	1.0	-1.0	72.0	0.0333333333333	0.1333333333333	0.0666666666667	218.53487706184387	
4	128.4274878501892	pulse	0	t		-1.0	1.0	-1.0	72.0	0.0333333333333	0.1333333333333	0.0666666666667	220.13507509231567	
4	130.02775979042053	pulse	0	t		-1.0	1.0	-1.0	72.0	0.0333333333333	0.1333333333333	0.0666666666667	221.735347032547	
5	130.0526134967804	stim	0		0	0.16666667	0.0666666666667	90.0	88.0	0.0333333333333	0.1333333333333	0.0666666666667	221.76020073890686	24.003570795059204
5	131.62192583084106	pulse	0	t		0.16666667	0.0666666666667	90.0	88.0	0.0333333333333	0.1333333333333	0.0666666666667	223.32951307296753	
5	131.78651976585388	response	0	b		0.16666667	0.0666666666667	90.0	88.0	0.0333333333333	0.1333333333333	0.0666666666667	223.49410700798035	
5	133.22187852859497	pulse	0	t		0.16666667	0.0666666666667	90.0	88.0	0.0333333333333	0.1333333333333	0.0666666666667	224.92946577072144	
5	134.82194542884827	pulse	0	t		0.16666667	0.0666666666667	90.0	88.0	0.0333333333333	0.1333333333333	0.0666666666667	226.52953267097473	
5	136.42192125320435	pulse	0	t		0.16666667	0.0666666666667	90.0	88.0	0.0333333333333	0.1333333333333	0.0666666666667	228.1295084953308	
5	136.54786562919617	response	0	b		0.16666667	0.0666666666667	90.0	88.0	0.0333333333333	0.1333333333333	0.0666666666667	228.25545287132263	
5	138.02195572853088	pulse	0	t		0.16666667	0.0666666666667	90.0	88.0	0.0333333333333	0.1333333333333	0.0666666666667	229.72954297065735	
5	139.62195992469788	pulse	0	t		0.16666667	0.0666666666667	90.0	88.0	0.0333333333333	0.1333333333333	0.0666666666667	231.32954716682434	
5	141.22200536727905	pulse	0	t		0.16666667	0.0666666666667	90.0	88.0	0.0333333333333	0.1333333333333	0.0666666666667	232.92959260940552	
5	142.0729992389679	response	0	b		0.16666667	0.0666666666667	90.0	88.0	0.0333333333333	0.1333333333333	0.0666666666667	233.78058648109436	
5	142.82200384140015	pulse	0	t		0.16666667	0.0666666666667	90.0	88.0	0.0333333333333	0.1333333333333	0.0666666666667	234.5295910835266	
5	144.42196202278137	pulse	0	t		0.16666667	0.0666666666667	90.0	88.0	0.0333333333333	0.1333333333333	0.0666666666667	236.12954926490784	
5	146.0219235420227	pulse	0	t		0.16666667	0.0666666666667	90.0	88.0	0.0333333333333	0.1333333333333	0.0666666666667	237.72951078414917	
5	147.62196826934814	pulse	0	t		0.16666667	0.0666666666667	90.0	88.0	0.0333333333333	0.1333333333333	0.0666666666667	239.3295555114746	
5	149.15897583961487	response	0	b		0.16666667	0.0666666666667	90.0	88.0	0.0333333333333	0.1333333333333	0.0666666666667	240.86656308174133	
5	149.2218873500824	pulse	0	t		0.16666667	0.0666666666667	90.0	88.0	0.0333333333333	0.1333333333333	0.0666666666667	240.92947459220886	
5	150.8219223022461	pulse	0	t		0.16666667	0.0666666666667	90.0	88.0	0.0333333333333	0.1333333333333	0.0666666666667	242.52950954437256	
5	152.42194366455078	pulse	0	t		0.16666667	0.0666666666667	90.0	88.0	0.0333333333333	0.1333333333333	0.0666666666667	244.12953090667725	
5	154.02192378044128	pulse	0	t		0.16666667	0.0666666666667	90.0	88.0	0.0333333333333	0.1333333333333	0.0666666666667	245.72951102256775	
6	154.0561842918396	stim	0		0	0.16666667	0.0666666666667	180.0	112.0	0.0333333333333	0.1333333333333	0.0666666666667	245.76377153396606	24.00362753868103
6	154.28990864753723	response	0	b		0.16666667	0.0666666666667	180.0	112.0	0.0333333333333	0.1333333333333	0.0666666666667	245.9974958896637	
6	155.62191724777222	pulse	0	t		0.16666667	0.0666666666667	180.0	112.0	0.0333333333333	0.1333333333333	0.0666666666667	247.32950448989868	
6	157.2219455242157	pulse	0	t		0.16666667	0.0666666666667	180.0	112.0	0.0333333333333	0.1333333333333	0.0666666666667	248.92953276634216	
6	158.22093653678894	response	0	b		0.16666667	0.0666666666667	180.0	112.0	0.0333333333333	0.1333333333333	0.0666666666667	249.9285237789154	
6	158.8219141960144	pulse	0	t		0.16666667	0.0666666666667	180.0	112.0	0.0333333333333	0.1333333333333	0.0666666666667	250.52950143814087	
6	160.42197275161743	pulse	0	t		0.16666667	0.0666666666667	180.0	112.0	0.0333333333333	0.1333333333333	0.0666666666667	252.1295599937439	
6	162.02199172973633	pulse	0	t		0.16666667	0.0666666666667	180.0	112.0	0.0333333333333	0.1333333333333	0.0666666666667	253.7295789718628	
6	163.6220133304596	pulse	0	t		0.16666667	0.0666666666667	180.0	112.0	0.0333333333333	0.1333333333333	0.0666666666667	255.32960057258606	
6	164.99795246124268	response	0	b		0.16666667	0.0666666666667	180.0	112.0	0.0333333333333	0.1333333333333	0.0666666666667	256.70553970336914	
6	165.22193717956543	pulse	0	t		0.16666667	0.0666666666667	180.0	112.0	0.0333333333333	0.1333333333333	0.0666666666667	256.9295244216919	
6	166.8218493461609	pulse	0	t		0.16666667	0.0666666666667	180.0	112.0	0.0333333333333	0.1333333333333	0.0666666666667	258.52943658828735	
6	168.42200994491577	pulse	0	t		0.16666667	0.0666666666667	180.0	112.0	0.0333333333333	0.1333333333333	0.0666666666667	260.12959718704224	
6	170.02203917503357	pulse	0	t		0.16666667	0.0666666666667	180.0	112.0	0.0333333333333	0.1333333333333	0.0666666666667	261.72962641716003	
6	171.62204217910767	pulse	0	t		0.16666667	0.0666666666667	180.0	112.0	0.0333333333333	0.1333333333333	0.0666666666667	263.32962942123413	
6	171.99702858924866	response	0	b		0.16666667	0.0666666666667	180.0	112.0	0.0333333333333	0.1333333333333	0.0666666666667	263.7046158313751	
6	173.22192215919495	pulse	0	t		0.16666667	0.0666666666667	180.0	112.0	0.0333333333333	0.1333333333333	0.0666666666667	264.9295094013214	
6	174.82205486297607	pulse	0	t		0.16666667	0.0666666666667	180.0	112.0	0.0333333333333	0.1333333333333	0.0666666666667	266.52964210510254	
6	176.42209672927856	pulse	0	t		0.16666667	0.0666666666667	180.0	112.0	0.0333333333333	0.1333333333333	0.0666666666667	268.12968397140503	
6	178.02218079566956	pulse	0	t		0.16666667	0.0666666666667	180.0	112.0	0.0333333333333	0.1333333333333	0.0666666666667	269.729768037796	
7	178.05981183052063	stim	0		0	-1.0	1.0	-1.0	136.0	0.0333333333333	0.1333333333333	0.0666666666667	269.7673990726471	15.994062423706055
7	179.62676548957825	pulse	0	t		-1.0	1.0	-1.0	136.0	0.0333333333333	0.1333333333333	0.0666666666667	271.3343527317047	
7	179.63508987426758	response	0	b		-1.0	1.0	-1.0	136.0	0.0333333333333	0.1333333333333	0.0666666666667	271.34267711639404	
7	181.2271101474762	pulse	0	t		-1.0	1.0	-1.0	136.0	0.0333333333333	0.1333333333333	0.0666666666667	272.93469738960266	
7	182.8273787498474	pulse	0	t		-1.0	1.0	-1.0	136.0	0.0333333333333	0.1333333333333	0.0666666666667	274.5349659919739	
7	184.42786741256714	pulse	0	t		-1.0	1.0	-1.0	136.0	0.0333333333333	0.1333333333333	0.0666666666667	276.1354546546936	
7	185.19439935684204	response	0	b		-1.0	1.0	-1.0	136.0	0.0333333333333	0.1333333333333	0.0666666666667	276.9019865989685	
7	186.02790880203247	pulse	0	t		-1.0	1.0	-1.0	136.0	0.0333333333333	0.1333333333333	0.0666666666667	277.73549604415894	
7	187.62810683250427	pulse	0	t		-1.0	1.0	-1.0	136.0	0.0333333333333	0.1333333333333	0.0666666666667	279.33569407463074	
7	189.22833776474	pulse	0	t		-1.0	1.0	-1.0	136.0	0.0333333333333	0.1333333333333	0.0666666666667	280.93592500686646	
7	190.82867550849915	pulse	0	t		-1.0	1.0	-1.0	136.0	0.0333333333333	0.1333333333333	0.0666666666667	282.5362627506256	
7	192.42881655693054	pulse	0	t		-1.0	1.0	-1.0	136.0	0.0333333333333	0.1333333333333	0.0666666666667	284.136403799057	
7	194.0291028022766	pulse	0	t		-1.0	1.0	-1.0	136.0	0.0333333333333	0.1333333333333	0.0666666666667	285.7366900444031	
8	194.05387425422668	stim	0		0	-1.0	1.0	-1.0	152.0	0.0333333333333	0.1333333333333	0.0666666666667	285.76146149635315	16.002557516098022
8	195.50434851646423	response	0	b		-1.0	1.0	-1.0	152.0	0.0333333333333	0.1333333333333	0.0666666666667	287.2119357585907	
8	195.62232065200806	pulse	0	t		-1.0	1.0	-1.0	152.0	0.0333333333333	0.1333333333333	0.0666666666667	287.3299078941345	
8	197.2296781539917	pulse	0	t		-1.0	1.0	-1.0	152.0	0.0333333333333	0.1333333333333	0.0666666666667	288.93726539611816	
8	198.82284450531006	pulse	0	t		-1.0	1.0	-1.0	152.0	0.0333333333333	0.1333333333333	0.0666666666667	290.5304317474365	
8	199.70496535301208	response	0	b		-1.0	1.0	-1.0	152.0	0.0333333333333	0.1333333333333	0.0666666666667	291.41255259513855	
8	200.42264771461487	pulse	0	t		-1.0	1.0	-1.0	152.0	0.0333333333333	0.1333333333333	0.0666666666667	292.13023495674133	
8	202.02288556098938	pulse	0	t		-1.0	1.0	-1.0	152.0	0.0333333333333	0.1333333333333	0.0666666666667	293.73047280311584	
8	203.6226875782013	pulse	0	t		-1.0	1.0	-1.0	152.0	0.0333333333333	0.1333333333333	0.0666666666667	295.33027482032776	
8	205.2225558757782	pulse	0	t		-1.0	1.0	-1.0	152.0	0.0333333333333	0.1333333333333	0.0666666666667	296.93014311790466	
8	205.6974732875824	response	0	b		-1.0	1.0	-1.0	152.0	0.0333333333333	0.1333333333333	0.0666666666667	297.40506052970886	
8	206.82285594940186	pulse	0	t		-1.0	1.0	-1.0	152.0	0.0333333333333	0.1333333333333	0.0666666666667	298.5304431915283	
8	208.42290210723877	pulse	0	t		-1.0	1.0	-1.0	152.0	0.0333333333333	0.1333333333333	0.0666666666667	300.13048934936523	
8	210.02350044250488	pulse	0	t		-1.0	1.0	-1.0	152.0	0.0333333333333	0.1333333333333	0.0666666666667	301.73108768463135	
9	210.0564317703247	stim	0		0	0.16666667	0.0666666666667	180.0	168.0	0.0333333333333	0.1333333333333	0.0666666666667	301.7640190124512	24.00351047515869
9	210.22327852249146	response	0	b		0.16666667	0.0666666666667	180.0	168.0	0.0333333333333	0.1333333333333	0.0666666666667	301.9308657646179	
9	211.62245106697083	pulse	0	t		0.16666667	0.0666666666667	180.0	168.0	0.0333333333333	0.1333333333333	0.0666666666667	303.3300383090973	
9	213.22233486175537	pulse	0	t		0.16666667	0.0666666666667	180.0	168.0	0.0333333333333	0.1333333333333	0.0666666666667	304.92992210388184	
9	214.5233392715454	response	0	b		0.16666667	0.0666666666667	180.0	168.0	0.0333333333333	0.1333333333333	0.0666666666667	306.2309265136719	
9	214.82232356071472	pulse	0	t		0.16666667	0.0666666666667	180.0	168.0	0.0333333333333	0.1333333333333	0.0666666666667	306.5299108028412	
9	216.42241859436035	pulse	0	t		0.16666667	0.0666666666667	180.0	168.0	0.0333333333333	0.1333333333333	0.0666666666667	308.1300058364868	
9	218.0226013660431	pulse	0	t		0.16666667	0.0666666666667	180.0	168.0	0.0333333333333	0.1333333333333	0.0666666666667	309.73018860816956	
9	218.38737106323242	response	0	b		0.16666667	0.0666666666667	180.0	168.0	0.0333333333333	0.1333333333333	0.0666666666667	310.0949583053589	
9	219.62254405021667	pulse	0	t		0.16666667	0.0666666666667	180.0	168.0	0.0333333333333	0.1333333333333	0.0666666666667	311.33013129234314	
9	221.2225637435913	pulse	0	t		0.16666667	0.0666666666667	180.0	168.0	0.0333333333333	0.1333333333333	0.0666666666667	312.9301509857178	
9	222.82240557670593	pulse	0	t		0.16666667	0.0666666666667	180.0	168.0	0.0333333333333	0.1333333333333	0.0666666666667	314.5299928188324	
9	223.31737756729126	response	0	b		0.16666667	0.0666666666667	180.0	168.0	0.0333333333333	0.1333333333333	0.0666666666667	315.0249648094177	
9	224.42259335517883	pulse	0	t		0.16666667	0.0666666666667	180.0	168.0	0.0333333333333	0.1333333333333	0.0666666666667	316.1301805973053	
9	226.02270078659058	pulse	0	t		0.16666667	0.0666666666667	180.0	168.0	0.0333333333333	0.1333333333333	0.0666666666667	317.73028802871704	
9	227.5693998336792	response	0	b		0.16666667	0.0666666666667	180.0	168.0	0.0333333333333	0.1333333333333	0.0666666666667	319.27698707580566	
9	227.62253499031067	pulse	0	t		0.16666667	0.0666666666667	180.0	168.0	0.0333333333333	0.1333333333333	0.0666666666667	319.33012223243713	
9	229.22141289710999	pulse	0	t		0.16666667	0.0666666666667	180.0	168.0	0.0333333333333	0.1333333333333	0.0666666666667	320.92900013923645	
9	229.99147653579712	response	0	b		0.16666667	0.0666666666667	180.0	168.0	0.0333333333333	0.1333333333333	0.0666666666667	321.6990637779236	
9	230.82138991355896	pulse	0	t		0.16666667	0.0666666666667	180.0	168.0	0.0333333333333	0.1333333333333	0.0666666666667	322.5289771556854	
9	232.4216547012329	pulse	0	t		0.16666667	0.0666666666667	180.0	168.0	0.0333333333333	0.1333333333333	0.0666666666667	324.1292419433594	
9	234.0226399898529	pulse	0	t		0.16666667	0.0666666666667	180.0	168.0	0.0333333333333	0.1333333333333	0.0666666666667	325.73022723197937	
10	234.0599422454834	stim	0		0	0.16666667	0.0666666666667	90.0	192.0	0.0333333333333	0.1333333333333	0.0666666666667	325.76752948760986	23.99533772468567
10	234.86860704421997	response	0	b		0.16666667	0.0666666666667	90.0	192.0	0.0333333333333	0.1333333333333	0.0666666666667	326.57619428634644	
10	235.62171745300293	pulse	0	t		0.16666667	0.0666666666667	90.0	192.0	0.0333333333333	0.1333333333333	0.0666666666667	327.3293046951294	
10	237.22277522087097	pulse	0	t		0.16666667	0.0666666666667	90.0	192.0	0.0333333333333	0.1333333333333	0.0666666666667	328.93036246299744	
10	238.15772819519043	response	0	b		0.16666667	0.0666666666667	90.0	192.0	0.0333333333333	0.1333333333333	0.0666666666667	329.8653154373169	
10	238.82167863845825	pulse	0	t		0.16666667	0.0666666666667	90.0	192.0	0.0333333333333	0.1333333333333	0.0666666666667	330.5292658805847	
10	240.41376566886902	response	0	b		0.16666667	0.0666666666667	90.0	192.0	0.0333333333333	0.1333333333333	0.0666666666667	332.1213529109955	
10	240.42149472236633	pulse	0	t		0.16666667	0.0666666666667	90.0	192.0	0.0333333333333	0.1333333333333	0.0666666666667	332.1290819644928	
10	242.02173328399658	pulse	0	t		0.16666667	0.0666666666667	90.0	192.0	0.0333333333333	0.1333333333333	0.0666666666667	333.72932052612305	
10	243.62171626091003	pulse	0	t		0.16666667	0.0666666666667	90.0	192.0	0.0333333333333	0.1333333333333	0.0666666666667	335.3293035030365	
10	244.52672338485718	response	0	b		0.16666667	0.0666666666667	90.0	192.0	0.0333333333333	0.1333333333333	0.0666666666667	336.23431062698364	
10	245.2216398715973	pulse	0	t		0.16666667	0.0666666666667	90.0	192.0	0.0333333333333	0.1333333333333	0.0666666666667	336.92922711372375	
10	246.82175636291504	pulse	0	t		0.16666667	0.0666666666667	90.0	192.0	0.0333333333333	0.1333333333333	0.0666666666667	338.5293436050415	
10	248.42181611061096	pulse	0	t		0.16666667	0.0666666666667	90.0	192.0	0.0333333333333	0.1333333333333	0.0666666666667	340.1294033527374	
10	248.76278567314148	response	0	b		0.16666667	0.0666666666667	90.0	192.0	0.0333333333333	0.1333333333333	0.0666666666667	340.47037291526794	
10	250.0216953754425	pulse	0	t		0.16666667	0.0666666666667	90.0	192.0	0.0333333333333	0.1333333333333	0.0666666666667	341.72928261756897	
10	251.43784618377686	response	0	b		0.16666667	0.0666666666667	90.0	192.0	0.0333333333333	0.1333333333333	0.0666666666667	343.1454334259033	
10	251.62167954444885	pulse	0	t		0.16666667	0.0666666666667	90.0	192.0	0.0333333333333	0.1333333333333	0.0666666666667	343.3292667865753	
10	253.22183966636658	pulse	0	t		0.16666667	0.0666666666667	90.0	192.0	0.0333333333333	0.1333333333333	0.0666666666667	344.92942690849304	
10	254.3187484741211	response	0	b		0.16666667	0.0666666666667	90.0	192.0	0.0333333333333	0.1333333333333	0.0666666666667	346.02633571624756	
10	254.8217327594757	pulse	0	t		0.16666667	0.0666666666667	90.0	192.0	0.0333333333333	0.1333333333333	0.0666666666667	346.5293200016022	
10	256.42176246643066	pulse	0	t		0.16666667	0.0666666666667	90.0	192.0	0.0333333333333	0.1333333333333	0.0666666666667	348.12934970855713	
10	258.02178740501404	pulse	0	t		0.16666667	0.0666666666667	90.0	192.0	0.0333333333333	0.1333333333333	0.0666666666667	349.7293746471405	
11	258.05527997016907	stim	0		0	-1.0	1.0	-1.0	216.0	0.0333333333333	0.1333333333333	0.0666666666667	349.76286721229553	16.002434730529785
11	259.6222701072693	pulse	0	t		-1.0	1.0	-1.0	216.0	0.0333333333333	0.1333333333333	0.0666666666667	351.32985734939575	
11	261.2225344181061	pulse	0	t		-1.0	1.0	-1.0	216.0	0.0333333333333	0.1333333333333	0.0666666666667	352.93012166023254	
11	261.4975061416626	response	0	b		-1.0	1.0	-1.0	216.0	0.0333333333333	0.1333333333333	0.0666666666667	353.20509338378906	
11	262.822717666626	pulse	0	t		-1.0	1.0	-1.0	216.0	0.0333333333333	0.1333333333333	0.0666666666667	354.53030490875244	
11	264.42298340797424	pulse	0	t		-1.0	1.0	-1.0	216.0	0.0333333333333	0.1333333333333	0.0666666666667	356.1305706501007	
11	265.88992071151733	response	0	b		-1.0	1.0	-1.0	216.0	0.0333333333333	0.1333333333333	0.0666666666667	357.5975079536438	
11	266.02328419685364	pulse	0	t		-1.0	1.0	-1.0	216.0	0.0333333333333	0.1333333333333	0.0666666666667	357.7308714389801	
11	267.6234414577484	pulse	0	t		-1.0	1.0	-1.0	216.0	0.0333333333333	0.1333333333333	0.0666666666667	359.3310286998749	
11	268.70701122283936	response	0	b		-1.0	1.0	-1.0	216.0	0.0333333333333	0.1333333333333	0.0666666666667	360.4145984649658	
11	269.22380805015564	pulse	0	t		-1.0	1.0	-1.0	216.0	0.0333333333333	0.1333333333333	0.0666666666667	360.9313952922821	
11	270.82391834259033	pulse	0	t		-1.0	1.0	-1.0	216.0	0.0333333333333	0.1333333333333	0.0666666666667	362.5315055847168	
11	271.482364654541	response	0	b		-1.0	1.0	-1.0	216.0	0.0333333333333	0.1333333333333	0.0666666666667	363.1899518966675	
11	272.4241735935211	pulse	0	t		-1.0	1.0	-1.0	216.0	0.0333333333333	0.1333333333333	0.0666666666667	364.1317608356476	
11	273.9827299118042	response	0	b		-1.0	1.0	-1.0	216.0	0.0333333333333	0.1333333333333	0.0666666666667	365.69031715393066	
11	274.02433729171753	pulse	0	t		-1.0	1.0	-1.0	216.0	0.0333333333333	0.1333333333333	0.0666666666667	365.731924533844	
12	274.05771470069885	stim	0		0	0.16666667	0.0666666666667	0.0	232.0	0.0333333333333	0.1333333333333	0.0666666666667	365.7653019428253	24.00371026992798
12	275.6219322681427	pulse	0	t		0.16666667	0.0666666666667	0.0	232.0	0.0333333333333	0.1333333333333	0.0666666666667	367.32951951026917	
12	276.7169392108917	response	0	b		0.16666667	0.0666666666667	0.0	232.0	0.0333333333333	0.1333333333333	0.0666666666667	368.4245264530182	
12	277.2218699455261	pulse	0	t		0.16666667	0.0666666666667	0.0	232.0	0.0333333333333	0.1333333333333	0.0666666666667	368.9294571876526	
12	278.8221113681793	pulse	0	t		0.16666667	0.0666666666667	0.0	232.0	0.0333333333333	0.1333333333333	0.0666666666667	370.5296986103058	
12	280.4219696521759	pulse	0	t		0.16666667	0.0666666666667	0.0	232.0	0.0333333333333	0.1333333333333	0.0666666666667	372.12955689430237	
12	281.7289755344391	response	0	b		0.16666667	0.0666666666667	0.0	232.0	0.0333333333333	0.1333333333333	0.0666666666667	373.43656277656555	
12	282.02199625968933	pulse	0	t		0.16666667	0.0666666666667	0.0	232.0	0.0333333333333	0.1333333333333	0.0666666666667	373.7295835018158	
12	283.6219439506531	pulse	0	t		0.16666667	0.0666666666667	0.0	232.0	0.0333333333333	0.1333333333333	0.0666666666667	375.32953119277954	
12	285.22196078300476	pulse	0	t		0.16666667	0.0666666666667	0.0	232.0	0.0333333333333	0.1333333333333	0.0666666666667	376.9295480251312	
12	286.82197880744934	pulse	0	t		0.16666667	0.0666666666667	0.0	232.0	0.0333333333333	0.1333333333333	0.0666666666667	378.5295660495758	
12	288.42201232910156	pulse	0	t		0.16666667	0.0666666666667	0.0	232.0	0.0333333333333	0.1333333333333	0.0666666666667	380.129599571228	
12	288.80994391441345	response	0	b		0.16666667	0.0666666666667	0.0	232.0	0.0333333333333	0.1333333333333	0.0666666666667	380.5175311565399	
12	290.0220010280609	pulse	0	t		0.16666667	0.0666666666667	0.0	232.0	0.0333333333333	0.1333333333333	0.0666666666667	381.7295882701874	
12	291.4740078449249	response	0	b		0.16666667	0.0666666666667	0.0	232.0	0.0333333333333	0.1333333333333	0.0666666666667	383.1815950870514	
12	291.62195467948914	pulse	0	t		0.16666667	0.0666666666667	0.0	232.0	0.0333333333333	0.1333333333333	0.0666666666667	383.3295419216156	
12	293.22198510169983	pulse	0	t		0.16666667	0.0666666666667	0.0	232.0	0.0333333333333	0.1333333333333	0.0666666666667	384.9295723438263	
12	294.82199215888977	pulse	0	t		0.16666667	0.0666666666667	0.0	232.0	0.0333333333333	0.1333333333333	0.0666666666667	386.52957940101624	
12	296.4220459461212	pulse	0	t		0.16666667	0.0666666666667	0.0	232.0	0.0333333333333	0.1333333333333	0.0666666666667	388.1296331882477	
12	296.5131049156189	response	0	b		0.16666667	0.0666666666667	0.0	232.0	0.0333333333333	0.1333333333333	0.0666666666667	388.22069215774536	
12	298.022066116333	pulse	0	t		0.16666667	0.0666666666667	0.0	232.0	0.0333333333333	0.1333333333333	0.0666666666667	389.7296533584595	
13	298.06142497062683	stim	0		0	0.16666667	0.0666666666667	270.0	256.0	0.0333333333333	0.1333333333333	0.0666666666667	389.7690122127533	23.995126724243164
13	299.62214946746826	pulse	0	t		0.16666667	0.0666666666667	270.0	256.0	0.0333333333333	0.1333333333333	0.0666666666667	391.3297367095947	
13	299.7350583076477	response	0	b		0.16666667	0.0666666666667	270.0	256.0	0.0333333333333	0.1333333333333	0.0666666666667	391.44264554977417	
13	301.2221419811249	pulse	0	t		0.16666667	0.0666666666667	270.0	256.0	0.0333333333333	0.1333333333333	0.0666666666667	392.92972922325134	
13	302.8220775127411	pulse	0	t		0.16666667	0.0666666666667	270.0	256.0	0.0333333333333	0.1333333333333	0.0666666666667	394.52966475486755	
13	303.33109760284424	response	0	b		0.16666667	0.0666666666667	270.0	256.0	0.0333333333333	0.1333333333333	0.0666666666667	395.0386848449707	
13	304.4221124649048	pulse	0	t		0.16666667	0.0666666666667	270.0	256.0	0.0333333333333	0.1333333333333	0.0666666666667	396.12969970703125	
13	305.5290775299072	response	0	b		0.16666667	0.0666666666667	270.0	256.0	0.0333333333333	0.1333333333333	0.0666666666667	397.2366647720337	
13	306.02205634117126	pulse	0	t		0.16666667	0.0666666666667	270.0	256.0	0.0333333333333	0.1333333333333	0.0666666666667	397.72964358329773	
13	307.6221308708191	pulse	0	t		0.16666667	0.0666666666667	270.0	256.0	0.0333333333333	0.1333333333333	0.0666666666667	399.32971811294556	
13	309.22218585014343	pulse	0	t		0.16666667	0.0666666666667	270.0	256.0	0.0333333333333	0.1333333333333	0.0666666666667	400.9297730922699	
13	310.8221809864044	pulse	0	t		0.16666667	0.0666666666667	270.0	256.0	0.0333333333333	0.1333333333333	0.0666666666667	402.5297682285309	
13	311.75603103637695	response	0	b		0.16666667	0.0666666666667	270.0	256.0	0.0333333333333	0.1333333333333	0.0666666666667	403.4636182785034	
13	312.4220802783966	pulse	0	t		0.16666667	0.0666666666667	270.0	256.0	0.0333333333333	0.1333333333333	0.0666666666667	404.12966752052307	
13	314.02210330963135	pulse	0	t		0.16666667	0.0666666666667	270.0	256.0	0.0333333333333	0.1333333333333	0.0666666666667	405.7296905517578	
13	315.6220350265503	pulse	0	t		0.16666667	0.0666666666667	270.0	256.0	0.0333333333333	0.1333333333333	0.0666666666667	407.32962226867676	
13	315.85404348373413	response	0	b		0.16666667	0.0666666666667	270.0	256.0	0.0333333333333	0.1333333333333	0.0666666666667	407.5616307258606	
13	317.22211599349976	pulse	0	t		0.16666667	0.0666666666667	270.0	256.0	0.0333333333333	0.1333333333333	0.0666666666667	408.9297032356262	
13	318.82208013534546	pulse	0	t		0.16666667	0.0666666666667	270.0	256.0	0.0333333333333	0.1333333333333	0.0666666666667	410.5296673774719	
13	318.86698961257935	response	0	b		0.16666667	0.0666666666667	270.0	256.0	0.0333333333333	0.1333333333333	0.0666666666667	410.5745768547058	
13	320.42206048965454	pulse	0	t		0.16666667	0.0666666666667	270.0	256.0	0.0333333333333	0.1333333333333	0.0666666666667	412.129647731781	
13	322.02214336395264	pulse	0	t		0.16666667	0.0666666666667	270.0	256.0	0.0333333333333	0.1333333333333	0.0666666666667	413.7297306060791	
14	322.05655169487	stim	0		0								413.76413893699646	24.220486879348755
14	323.01500272750854	response	0	b									414.722589969635	
14	323.62345576286316	pulse	0	t									415.3310430049896	
14	325.2236964702606	pulse	0	t									416.9312837123871	
14	326.82401752471924	pulse	0	t									418.5316047668457	
14	328.1575140953064	response	0	b									419.86510133743286	
14	328.42428946495056	pulse	0	t									420.131876707077	
14	330.02452087402344	pulse	0	t									421.7321081161499	
14	331.62503814697266	pulse	0	t									423.3326253890991	
14	333.2250714302063	pulse	0	t									424.93265867233276	
14	334.82526779174805	pulse	0	t									426.5328550338745	
14	335.98373198509216	response	0	b									427.6913192272186	
14	336.4254403114319	pulse	0	t									428.13302755355835	
14	338.025892496109	pulse	0	t									429.7334797382355	
14	339.0675220489502	response	0	b									430.77510929107666	
14	339.62593030929565	pulse	0	t									431.3335175514221	
14	341.2261781692505	pulse	0	t									432.93376541137695	
14	342.7931716442108	response	0	b									434.5007588863373	
14	342.82645630836487	pulse	0	t									434.53404355049133	
14	344.42665553092957	pulse	0	t									436.13424277305603	
14	344.80170130729675	response	0	b									436.5092885494232	
14	346.02690267562866	pulse	0	t									437.7344899177551	
