trial_nr	onset	event_type	phase	response	nr_frames	bar_width	bar_refresh_time	bar_direction	start_time	bar_blank_duration	bar_blank_interval	bg_stim_refresh_time	onset_abs	duration
0	0.1663379669189453	stim	0		0								14.439725875854492	0.024994850158691406
0	0.18334293365478516	response	0	space									14.456730842590332	
1	0.19133281707763672	stim	0		0								14.464720726013184	38.70894980430603
1	38.871052742004395	pulse	0	t									53.14444065093994	
1	38.90028262138367	stim	1		0								53.173670530319214	0.0013964176177978516
1	38.901679039001465	stim	0		0								53.17506694793701	23.999261379241943
1	40.46659064292908	pulse	0	t									54.739978551864624	
1	42.064728021621704	pulse	0	t									56.33811593055725	
1	42.80623984336853	response	0	b									57.07962775230408	
1	43.66468048095703	pulse	0	t									57.93806838989258	
1	45.26495337486267	pulse	0	t									59.53834128379822	
1	46.6234655380249	response	0	b									60.89685344696045	
1	46.8653359413147	pulse	0	t									61.138723850250244	
1	48.46543264389038	pulse	0	t									62.73882055282593	
1	50.065741777420044	pulse	0	t									64.33912968635559	
1	50.616756200790405	response	0	b									64.89014410972595	
1	51.665900230407715	pulse	0	t									65.93928813934326	
1	52.78272533416748	response	0	b									67.05611324310303	
1	53.266233682632446	pulse	0	t									67.539621591568	
1	54.86638641357422	pulse	0	t									69.13977432250977	
1	55.133086919784546	response	0	b									69.40647482872009	
1	56.46661734580994	pulse	0	t									70.74000525474548	
1	57.826406717300415	response	0	b									72.09979462623596	
1	58.06686973571777	pulse	0	t									72.34025764465332	
1	59.66715931892395	pulse	0	t									73.9405472278595	
1	61.267409563064575	pulse	0	t									75.54079747200012	
1	62.78421998023987	response	0	b									77.05760788917542	
1	62.86750626564026	pulse	0	t									77.1408941745758	
2	62.90094041824341	stim	0		0	0.16666667	0.0666666666667	270.0	24.0	0.0333333333333	0.1333333333333	0.0666666666667	77.17432832717896	24.003467798233032
2	64.46483612060547	pulse	0	t		0.16666667	0.0666666666667	270.0	24.0	0.0333333333333	0.1333333333333	0.0666666666667	78.73822402954102	
2	66.06487703323364	pulse	0	t		0.16666667	0.0666666666667	270.0	24.0	0.0333333333333	0.1333333333333	0.0666666666667	80.33826494216919	
2	67.66483354568481	pulse	0	t		0.16666667	0.0666666666667	270.0	24.0	0.0333333333333	0.1333333333333	0.0666666666667	81.93822145462036	
2	69.13790655136108	response	0	b		0.16666667	0.0666666666667	270.0	24.0	0.0333333333333	0.1333333333333	0.0666666666667	83.41129446029663	
2	69.26479125022888	pulse	0	t		0.16666667	0.0666666666667	270.0	24.0	0.0333333333333	0.1333333333333	0.0666666666667	83.53817915916443	
2	70.8648886680603	pulse	0	t		0.16666667	0.0666666666667	270.0	24.0	0.0333333333333	0.1333333333333	0.0666666666667	85.13827657699585	
2	72.46490406990051	pulse	0	t		0.16666667	0.0666666666667	270.0	24.0	0.0333333333333	0.1333333333333	0.0666666666667	86.73829197883606	
2	72.47648477554321	response	0	b		0.16666667	0.0666666666667	270.0	24.0	0.0333333333333	0.1333333333333	0.0666666666667	86.74987268447876	
2	74.06486487388611	pulse	0	t		0.16666667	0.0666666666667	270.0	24.0	0.0333333333333	0.1333333333333	0.0666666666667	88.33825278282166	
2	75.66490411758423	pulse	0	t		0.16666667	0.0666666666667	270.0	24.0	0.0333333333333	0.1333333333333	0.0666666666667	89.93829202651978	
2	77.26492238044739	pulse	0	t		0.16666667	0.0666666666667	270.0	24.0	0.0333333333333	0.1333333333333	0.0666666666667	91.53831028938293	
2	78.86493825912476	pulse	0	t		0.16666667	0.0666666666667	270.0	24.0	0.0333333333333	0.1333333333333	0.0666666666667	93.1383261680603	
2	80.16089129447937	response	0	b		0.16666667	0.0666666666667	270.0	24.0	0.0333333333333	0.1333333333333	0.0666666666667	94.43427920341492	
2	80.46493864059448	pulse	0	t		0.16666667	0.0666666666667	270.0	24.0	0.0333333333333	0.1333333333333	0.0666666666667	94.73832654953003	
2	82.06481790542603	pulse	0	t		0.16666667	0.0666666666667	270.0	24.0	0.0333333333333	0.1333333333333	0.0666666666667	96.33820581436157	
2	83.66483902931213	pulse	0	t		0.16666667	0.0666666666667	270.0	24.0	0.0333333333333	0.1333333333333	0.0666666666667	97.93822693824768	
2	85.26485705375671	pulse	0	t		0.16666667	0.0666666666667	270.0	24.0	0.0333333333333	0.1333333333333	0.0666666666667	99.53824496269226	
2	86.8648579120636	pulse	0	t		0.16666667	0.0666666666667	270.0	24.0	0.0333333333333	0.1333333333333	0.0666666666667	101.13824582099915	
3	86.90440821647644	stim	0		0	0.16666667	0.0666666666667	0.0	48.0	0.0333333333333	0.1333333333333	0.0666666666667	101.17779612541199	24.003525257110596
3	87.18687176704407	response	0	b		0.16666667	0.0666666666667	0.0	48.0	0.0333333333333	0.1333333333333	0.0666666666667	101.46025967597961	
3	88.46487951278687	pulse	0	t		0.16666667	0.0666666666667	0.0	48.0	0.0333333333333	0.1333333333333	0.0666666666667	102.73826742172241	
3	89.95383620262146	response	0	b		0.16666667	0.0666666666667	0.0	48.0	0.0333333333333	0.1333333333333	0.0666666666667	104.227224111557	
3	90.0648775100708	pulse	0	t		0.16666667	0.0666666666667	0.0	48.0	0.0333333333333	0.1333333333333	0.0666666666667	104.33826541900635	
3	91.66493320465088	pulse	0	t		0.16666667	0.0666666666667	0.0	48.0	0.0333333333333	0.1333333333333	0.0666666666667	105.93832111358643	
3	92.50487732887268	response	0	b		0.16666667	0.0666666666667	0.0	48.0	0.0333333333333	0.1333333333333	0.0666666666667	106.77826523780823	
3	93.26488995552063	pulse	0	t		0.16666667	0.0666666666667	0.0	48.0	0.0333333333333	0.1333333333333	0.0666666666667	107.53827786445618	
3	94.864901304245	pulse	0	t		0.16666667	0.0666666666667	0.0	48.0	0.0333333333333	0.1333333333333	0.0666666666667	109.13828921318054	
3	95.37893319129944	response	0	b		0.16666667	0.0666666666667	0.0	48.0	0.0333333333333	0.1333333333333	0.0666666666667	109.65232110023499	
3	96.46490931510925	pulse	0	t		0.16666667	0.0666666666667	0.0	48.0	0.0333333333333	0.1333333333333	0.0666666666667	110.7382972240448	
3	97.46394300460815	response	0	b		0.16666667	0.0666666666667	0.0	48.0	0.0333333333333	0.1333333333333	0.0666666666667	111.7373309135437	
3	98.06491780281067	pulse	0	t		0.16666667	0.0666666666667	0.0	48.0	0.0333333333333	0.1333333333333	0.0666666666667	112.33830571174622	
3	99.66496729850769	pulse	0	t		0.16666667	0.0666666666667	0.0	48.0	0.0333333333333	0.1333333333333	0.0666666666667	113.93835520744324	
3	101.26496744155884	pulse	0	t		0.16666667	0.0666666666667	0.0	48.0	0.0333333333333	0.1333333333333	0.0666666666667	115.53835535049438	
3	102.86510181427002	pulse	0	t		0.16666667	0.0666666666667	0.0	48.0	0.0333333333333	0.1333333333333	0.0666666666667	117.13848972320557	
3	104.46500372886658	pulse	0	t		0.16666667	0.0666666666667	0.0	48.0	0.0333333333333	0.1333333333333	0.0666666666667	118.73839163780212	
3	105.9100067615509	response	0	b		0.16666667	0.0666666666667	0.0	48.0	0.0333333333333	0.1333333333333	0.0666666666667	120.18339467048645	
3	106.0650246143341	pulse	0	t		0.16666667	0.0666666666667	0.0	48.0	0.0333333333333	0.1333333333333	0.0666666666667	120.33841252326965	
3	107.6650824546814	pulse	0	t		0.16666667	0.0666666666667	0.0	48.0	0.0333333333333	0.1333333333333	0.0666666666667	121.93847036361694	
3	109.26510834693909	pulse	0	t		0.16666667	0.0666666666667	0.0	48.0	0.0333333333333	0.1333333333333	0.0666666666667	123.53849625587463	
3	110.86506605148315	pulse	0	t		0.16666667	0.0666666666667	0.0	48.0	0.0333333333333	0.1333333333333	0.0666666666667	125.1384539604187	
4	110.90793347358704	stim	0		0	-1.0	1.0	-1.0	72.0	0.0333333333333	0.1333333333333	0.0666666666667	125.18132138252258	15.994266271591187
4	110.93307971954346	response	0	b		-1.0	1.0	-1.0	72.0	0.0333333333333	0.1333333333333	0.0666666666667	125.206467628479	
4	112.46660685539246	pulse	0	t		-1.0	1.0	-1.0	72.0	0.0333333333333	0.1333333333333	0.0666666666667	126.739994764328	
4	114.06695413589478	pulse	0	t		-1.0	1.0	-1.0	72.0	0.0333333333333	0.1333333333333	0.0666666666667	128.34034204483032	
4	115.66719102859497	pulse	0	t		-1.0	1.0	-1.0	72.0	0.0333333333333	0.1333333333333	0.0666666666667	129.94057893753052	
4	116.07554507255554	response	0	b		-1.0	1.0	-1.0	72.0	0.0333333333333	0.1333333333333	0.0666666666667	130.3489329814911	
4	117.26753902435303	pulse	0	t		-1.0	1.0	-1.0	72.0	0.0333333333333	0.1333333333333	0.0666666666667	131.54092693328857	
4	118.8676404953003	pulse	0	t		-1.0	1.0	-1.0	72.0	0.0333333333333	0.1333333333333	0.0666666666667	133.14102840423584	
4	120.46804118156433	pulse	0	t		-1.0	1.0	-1.0	72.0	0.0333333333333	0.1333333333333	0.0666666666667	134.74142909049988	
4	120.9599986076355	response	0	b		-1.0	1.0	-1.0	72.0	0.0333333333333	0.1333333333333	0.0666666666667	135.23338651657104	
4	122.06831288337708	pulse	0	t		-1.0	1.0	-1.0	72.0	0.0333333333333	0.1333333333333	0.0666666666667	136.34170079231262	
4	123.66842651367188	pulse	0	t		-1.0	1.0	-1.0	72.0	0.0333333333333	0.1333333333333	0.0666666666667	137.94181442260742	
4	124.14549708366394	response	0	b		-1.0	1.0	-1.0	72.0	0.0333333333333	0.1333333333333	0.0666666666667	138.4188849925995	
4	125.26862812042236	pulse	0	t		-1.0	1.0	-1.0	72.0	0.0333333333333	0.1333333333333	0.0666666666667	139.5420160293579	
4	126.67714524269104	response	0	b		-1.0	1.0	-1.0	72.0	0.0333333333333	0.1333333333333	0.0666666666667	140.9505331516266	
4	126.86891150474548	pulse	0	t		-1.0	1.0	-1.0	72.0	0.0333333333333	0.1333333333333	0.0666666666667	141.14229941368103	
5	126.90219974517822	stim	0		0	0.16666667	0.0666666666667	90.0	88.0	0.0333333333333	0.1333333333333	0.0666666666667	141.17558765411377	24.00348711013794
5	128.46536707878113	pulse	0	t		0.16666667	0.0666666666667	90.0	88.0	0.0333333333333	0.1333333333333	0.0666666666667	142.73875498771667	
5	128.77631998062134	response	0	b		0.16666667	0.0666666666667	90.0	88.0	0.0333333333333	0.1333333333333	0.0666666666667	143.04970788955688	
5	130.06533765792847	pulse	0	t		0.16666667	0.0666666666667	90.0	88.0	0.0333333333333	0.1333333333333	0.0666666666667	144.338725566864	
5	131.66539430618286	pulse	0	t		0.16666667	0.0666666666667	90.0	88.0	0.0333333333333	0.1333333333333	0.0666666666667	145.9387822151184	
5	133.2653784751892	pulse	0	t		0.16666667	0.0666666666667	90.0	88.0	0.0333333333333	0.1333333333333	0.0666666666667	147.53876638412476	
5	134.86527943611145	pulse	0	t		0.16666667	0.0666666666667	90.0	88.0	0.0333333333333	0.1333333333333	0.0666666666667	149.138667345047	
5	136.46539640426636	pulse	0	t		0.16666667	0.0666666666667	90.0	88.0	0.0333333333333	0.1333333333333	0.0666666666667	150.7387843132019	
5	138.0652415752411	pulse	0	t		0.16666667	0.0666666666667	90.0	88.0	0.0333333333333	0.1333333333333	0.0666666666667	152.33862948417664	
5	139.66538405418396	pulse	0	t		0.16666667	0.0666666666667	90.0	88.0	0.0333333333333	0.1333333333333	0.0666666666667	153.9387719631195	
5	139.90220761299133	response	0	b		0.16666667	0.0666666666667	90.0	88.0	0.0333333333333	0.1333333333333	0.0666666666667	154.17559552192688	
5	141.2653079032898	pulse	0	t		0.16666667	0.0666666666667	90.0	88.0	0.0333333333333	0.1333333333333	0.0666666666667	155.53869581222534	
5	142.42227935791016	response	0	b		0.16666667	0.0666666666667	90.0	88.0	0.0333333333333	0.1333333333333	0.0666666666667	156.6956672668457	
5	142.86526322364807	pulse	0	t		0.16666667	0.0666666666667	90.0	88.0	0.0333333333333	0.1333333333333	0.0666666666667	157.13865113258362	
5	144.46531629562378	pulse	0	t		0.16666667	0.0666666666667	90.0	88.0	0.0333333333333	0.1333333333333	0.0666666666667	158.73870420455933	
5	145.15028738975525	response	0	b		0.16666667	0.0666666666667	90.0	88.0	0.0333333333333	0.1333333333333	0.0666666666667	159.4236752986908	
5	146.06530928611755	pulse	0	t		0.16666667	0.0666666666667	90.0	88.0	0.0333333333333	0.1333333333333	0.0666666666667	160.3386971950531	
5	147.66535353660583	pulse	0	t		0.16666667	0.0666666666667	90.0	88.0	0.0333333333333	0.1333333333333	0.0666666666667	161.93874144554138	
5	149.26542901992798	pulse	0	t		0.16666667	0.0666666666667	90.0	88.0	0.0333333333333	0.1333333333333	0.0666666666667	163.53881692886353	
5	150.10335445404053	response	0	b		0.16666667	0.0666666666667	90.0	88.0	0.0333333333333	0.1333333333333	0.0666666666667	164.37674236297607	
5	150.86531710624695	pulse	0	t		0.16666667	0.0666666666667	90.0	88.0	0.0333333333333	0.1333333333333	0.0666666666667	165.1387050151825	
6	150.90568685531616	stim	0		0	0.16666667	0.0666666666667	180.0	112.0	0.0333333333333	0.1333333333333	0.0666666666667	165.1790747642517	23.99529266357422
6	152.3544692993164	response	0	b		0.16666667	0.0666666666667	180.0	112.0	0.0333333333333	0.1333333333333	0.0666666666667	166.62785720825195	
6	152.46535730361938	pulse	0	t		0.16666667	0.0666666666667	180.0	112.0	0.0333333333333	0.1333333333333	0.0666666666667	166.73874521255493	
6	154.0654582977295	pulse	0	t		0.16666667	0.0666666666667	180.0	112.0	0.0333333333333	0.1333333333333	0.0666666666667	168.33884620666504	
6	155.665509223938	pulse	0	t		0.16666667	0.0666666666667	180.0	112.0	0.0333333333333	0.1333333333333	0.0666666666667	169.93889713287354	
6	157.26538372039795	pulse	0	t		0.16666667	0.0666666666667	180.0	112.0	0.0333333333333	0.1333333333333	0.0666666666667	171.5387716293335	
6	158.86537981033325	pulse	0	t		0.16666667	0.0666666666667	180.0	112.0	0.0333333333333	0.1333333333333	0.0666666666667	173.1387677192688	
6	160.46543073654175	pulse	0	t		0.16666667	0.0666666666667	180.0	112.0	0.0333333333333	0.1333333333333	0.0666666666667	174.7388186454773	
6	162.06541919708252	pulse	0	t		0.16666667	0.0666666666667	180.0	112.0	0.0333333333333	0.1333333333333	0.0666666666667	176.33880710601807	
6	163.66547632217407	pulse	0	t		0.16666667	0.0666666666667	180.0	112.0	0.0333333333333	0.1333333333333	0.0666666666667	177.93886423110962	
6	165.2655005455017	pulse	0	t		0.16666667	0.0666666666667	180.0	112.0	0.0333333333333	0.1333333333333	0.0666666666667	179.53888845443726	
6	165.86947298049927	response	0	b		0.16666667	0.0666666666667	180.0	112.0	0.0333333333333	0.1333333333333	0.0666666666667	180.14286088943481	
6	166.86545133590698	pulse	0	t		0.16666667	0.0666666666667	180.0	112.0	0.0333333333333	0.1333333333333	0.0666666666667	181.13883924484253	
6	168.46549677848816	pulse	0	t		0.16666667	0.0666666666667	180.0	112.0	0.0333333333333	0.1333333333333	0.0666666666667	182.7388846874237	
6	170.0655267238617	pulse	0	t		0.16666667	0.0666666666667	180.0	112.0	0.0333333333333	0.1333333333333	0.0666666666667	184.33891463279724	
6	170.07621121406555	response	0	b		0.16666667	0.0666666666667	180.0	112.0	0.0333333333333	0.1333333333333	0.0666666666667	184.3495991230011	
6	171.66553163528442	pulse	0	t		0.16666667	0.0666666666667	180.0	112.0	0.0333333333333	0.1333333333333	0.0666666666667	185.93891954421997	
6	173.26558303833008	pulse	0	t		0.16666667	0.0666666666667	180.0	112.0	0.0333333333333	0.1333333333333	0.0666666666667	187.53897094726562	
6	174.08752465248108	response	0	b		0.16666667	0.0666666666667	180.0	112.0	0.0333333333333	0.1333333333333	0.0666666666667	188.36091256141663	
6	174.86556363105774	pulse	0	t		0.16666667	0.0666666666667	180.0	112.0	0.0333333333333	0.1333333333333	0.0666666666667	189.1389515399933	
7	174.90097951889038	stim	0		0	-1.0	1.0	-1.0	136.0	0.0333333333333	0.1333333333333	0.0666666666667	189.17436742782593	16.00232982635498
7	175.9762134552002	response	0	b		-1.0	1.0	-1.0	136.0	0.0333333333333	0.1333333333333	0.0666666666667	190.24960136413574	
7	176.4681499004364	pulse	0	t		-1.0	1.0	-1.0	136.0	0.0333333333333	0.1333333333333	0.0666666666667	190.74153780937195	
7	178.0681357383728	pulse	0	t		-1.0	1.0	-1.0	136.0	0.0333333333333	0.1333333333333	0.0666666666667	192.34152364730835	
7	179.6686179637909	pulse	0	t		-1.0	1.0	-1.0	136.0	0.0333333333333	0.1333333333333	0.0666666666667	193.94200587272644	
7	181.26859521865845	pulse	0	t		-1.0	1.0	-1.0	136.0	0.0333333333333	0.1333333333333	0.0666666666667	195.541983127594	
7	181.62762188911438	response	0	b		-1.0	1.0	-1.0	136.0	0.0333333333333	0.1333333333333	0.0666666666667	195.90100979804993	
7	182.8688931465149	pulse	0	t		-1.0	1.0	-1.0	136.0	0.0333333333333	0.1333333333333	0.0666666666667	197.14228105545044	
7	184.269052028656	response	0	b		-1.0	1.0	-1.0	136.0	0.0333333333333	0.1333333333333	0.0666666666667	198.54243993759155	
7	184.46904587745667	pulse	0	t		-1.0	1.0	-1.0	136.0	0.0333333333333	0.1333333333333	0.0666666666667	198.7424337863922	
7	186.06932139396667	pulse	0	t		-1.0	1.0	-1.0	136.0	0.0333333333333	0.1333333333333	0.0666666666667	200.34270930290222	
7	186.43649816513062	response	0	b		-1.0	1.0	-1.0	136.0	0.0333333333333	0.1333333333333	0.0666666666667	200.70988607406616	
7	187.66963839530945	pulse	0	t		-1.0	1.0	-1.0	136.0	0.0333333333333	0.1333333333333	0.0666666666667	201.943026304245	
7	189.26986122131348	pulse	0	t		-1.0	1.0	-1.0	136.0	0.0333333333333	0.1333333333333	0.0666666666667	203.54324913024902	
7	190.87015962600708	pulse	0	t		-1.0	1.0	-1.0	136.0	0.0333333333333	0.1333333333333	0.0666666666667	205.14354753494263	
8	190.90330934524536	stim	0		0	-1.0	1.0	-1.0	152.0	0.0333333333333	0.1333333333333	0.0666666666667	205.1766972541809	16.002513885498047
8	191.05480551719666	response	0	b		-1.0	1.0	-1.0	152.0	0.0333333333333	0.1333333333333	0.0666666666667	205.3281934261322	
8	192.47043228149414	pulse	0	t		-1.0	1.0	-1.0	152.0	0.0333333333333	0.1333333333333	0.0666666666667	206.7438201904297	
8	194.07091331481934	pulse	0	t		-1.0	1.0	-1.0	152.0	0.0333333333333	0.1333333333333	0.0666666666667	208.34430122375488	
8	195.2958698272705	response	0	b		-1.0	1.0	-1.0	152.0	0.0333333333333	0.1333333333333	0.0666666666667	209.56925773620605	
8	195.67083287239075	pulse	0	t		-1.0	1.0	-1.0	152.0	0.0333333333333	0.1333333333333	0.0666666666667	209.9442207813263	
8	197.27112460136414	pulse	0	t		-1.0	1.0	-1.0	152.0	0.0333333333333	0.1333333333333	0.0666666666667	211.54451251029968	
8	198.87134671211243	pulse	0	t		-1.0	1.0	-1.0	152.0	0.0333333333333	0.1333333333333	0.0666666666667	213.14473462104797	
8	200.45495319366455	response	0	b		-1.0	1.0	-1.0	152.0	0.0333333333333	0.1333333333333	0.0666666666667	214.7283411026001	
8	200.47167682647705	pulse	0	t		-1.0	1.0	-1.0	152.0	0.0333333333333	0.1333333333333	0.0666666666667	214.7450647354126	
8	202.07181882858276	pulse	0	t		-1.0	1.0	-1.0	152.0	0.0333333333333	0.1333333333333	0.0666666666667	216.3452067375183	
8	203.66505360603333	pulse	0	t		-1.0	1.0	-1.0	152.0	0.0333333333333	0.1333333333333	0.0666666666667	217.93844151496887	
8	205.2650055885315	pulse	0	t		-1.0	1.0	-1.0	152.0	0.0333333333333	0.1333333333333	0.0666666666667	219.53839349746704	
8	206.86538004875183	pulse	0	t		-1.0	1.0	-1.0	152.0	0.0333333333333	0.1333333333333	0.0666666666667	221.13876795768738	
9	206.9058232307434	stim	0		0	0.16666667	0.0666666666667	180.0	168.0	0.0333333333333	0.1333333333333	0.0666666666667	221.17921113967896	24.003575563430786
9	208.46493196487427	pulse	0	t		0.16666667	0.0666666666667	180.0	168.0	0.0333333333333	0.1333333333333	0.0666666666667	222.73831987380981	
9	210.06490230560303	pulse	0	t		0.16666667	0.0666666666667	180.0	168.0	0.0333333333333	0.1333333333333	0.0666666666667	224.33829021453857	
9	211.66496229171753	pulse	0	t		0.16666667	0.0666666666667	180.0	168.0	0.0333333333333	0.1333333333333	0.0666666666667	225.93835020065308	
9	213.26497888565063	pulse	0	t		0.16666667	0.0666666666667	180.0	168.0	0.0333333333333	0.1333333333333	0.0666666666667	227.53836679458618	
9	213.275550365448	response	0	b		0.16666667	0.0666666666667	180.0	168.0	0.0333333333333	0.1333333333333	0.0666666666667	227.54893827438354	
9	214.86500763893127	pulse	0	t		0.16666667	0.0666666666667	180.0	168.0	0.0333333333333	0.1333333333333	0.0666666666667	229.13839554786682	
9	216.46484971046448	pulse	0	t		0.16666667	0.0666666666667	180.0	168.0	0.0333333333333	0.1333333333333	0.0666666666667	230.73823761940002	
9	216.48651027679443	response	0	b		0.16666667	0.0666666666667	180.0	168.0	0.0333333333333	0.1333333333333	0.0666666666667	230.75989818572998	
9	218.06487655639648	pulse	0	t		0.16666667	0.0666666666667	180.0	168.0	0.0333333333333	0.1333333333333	0.0666666666667	232.33826446533203	
9	219.66491389274597	pulse	0	t		0.16666667	0.0666666666667	180.0	168.0	0.0333333333333	0.1333333333333	0.0666666666667	233.93830180168152	
9	221.26488280296326	pulse	0	t		0.16666667	0.0666666666667	180.0	168.0	0.0333333333333	0.1333333333333	0.0666666666667	235.5382707118988	
9	222.86488318443298	pulse	0	t		0.16666667	0.0666666666667	180.0	168.0	0.0333333333333	0.1333333333333	0.0666666666667	237.13827109336853	
9	223.5675175189972	response	0	b		0.16666667	0.0666666666667	180.0	168.0	0.0333333333333	0.1333333333333	0.0666666666667	237.84090542793274	
9	224.46489596366882	pulse	0	t		0.16666667	0.0666666666667	180.0	168.0	0.0333333333333	0.1333333333333	0.0666666666667	238.73828387260437	
9	226.06495022773743	pulse	0	t		0.16666667	0.0666666666667	180.0	168.0	0.0333333333333	0.1333333333333	0.0666666666667	240.33833813667297	
9	226.82616591453552	response	0	b		0.16666667	0.0666666666667	180.0	168.0	0.0333333333333	0.1333333333333	0.0666666666667	241.09955382347107	
9	227.6649386882782	pulse	0	t		0.16666667	0.0666666666667	180.0	168.0	0.0333333333333	0.1333333333333	0.0666666666667	241.93832659721375	
9	229.2649221420288	pulse	0	t		0.16666667	0.0666666666667	180.0	168.0	0.0333333333333	0.1333333333333	0.0666666666667	243.53831005096436	
9	230.41295170783997	response	0	b		0.16666667	0.0666666666667	180.0	168.0	0.0333333333333	0.1333333333333	0.0666666666667	244.6863396167755	
9	230.86500597000122	pulse	0	t		0.16666667	0.0666666666667	180.0	168.0	0.0333333333333	0.1333333333333	0.0666666666667	245.13839387893677	
10	230.9093987941742	stim	0		0	0.16666667	0.0666666666667	90.0	192.0	0.0333333333333	0.1333333333333	0.0666666666667	245.18278670310974	23.995231866836548
10	232.46489763259888	pulse	0	t		0.16666667	0.0666666666667	90.0	192.0	0.0333333333333	0.1333333333333	0.0666666666667	246.73828554153442	
10	234.06502890586853	pulse	0	t		0.16666667	0.0666666666667	90.0	192.0	0.0333333333333	0.1333333333333	0.0666666666667	248.33841681480408	
10	235.53908467292786	response	0	b		0.16666667	0.0666666666667	90.0	192.0	0.0333333333333	0.1333333333333	0.0666666666667	249.8124725818634	
10	235.66494584083557	pulse	0	t		0.16666667	0.0666666666667	90.0	192.0	0.0333333333333	0.1333333333333	0.0666666666667	249.93833374977112	
10	237.26503992080688	pulse	0	t		0.16666667	0.0666666666667	90.0	192.0	0.0333333333333	0.1333333333333	0.0666666666667	251.53842782974243	
10	238.86508440971375	pulse	0	t		0.16666667	0.0666666666667	90.0	192.0	0.0333333333333	0.1333333333333	0.0666666666667	253.1384723186493	
10	240.4651165008545	pulse	0	t		0.16666667	0.0666666666667	90.0	192.0	0.0333333333333	0.1333333333333	0.0666666666667	254.73850440979004	
10	242.06505393981934	pulse	0	t		0.16666667	0.0666666666667	90.0	192.0	0.0333333333333	0.1333333333333	0.0666666666667	256.3384418487549	
10	243.66510438919067	pulse	0	t		0.16666667	0.0666666666667	90.0	192.0	0.0333333333333	0.1333333333333	0.0666666666667	257.9384922981262	
10	243.9069309234619	response	0	b		0.16666667	0.0666666666667	90.0	192.0	0.0333333333333	0.1333333333333	0.0666666666667	258.18031883239746	
10	245.2651641368866	pulse	0	t		0.16666667	0.0666666666667	90.0	192.0	0.0333333333333	0.1333333333333	0.0666666666667	259.53855204582214	
10	246.8650770187378	pulse	0	t		0.16666667	0.0666666666667	90.0	192.0	0.0333333333333	0.1333333333333	0.0666666666667	261.13846492767334	
10	247.4761984348297	response	0	b		0.16666667	0.0666666666667	90.0	192.0	0.0333333333333	0.1333333333333	0.0666666666667	261.74958634376526	
10	248.46510195732117	pulse	0	t		0.16666667	0.0666666666667	90.0	192.0	0.0333333333333	0.1333333333333	0.0666666666667	262.7384898662567	
10	250.06515049934387	pulse	0	t		0.16666667	0.0666666666667	90.0	192.0	0.0333333333333	0.1333333333333	0.0666666666667	264.3385384082794	
10	251.66516423225403	pulse	0	t		0.16666667	0.0666666666667	90.0	192.0	0.0333333333333	0.1333333333333	0.0666666666667	265.9385521411896	
10	253.26516032218933	pulse	0	t		0.16666667	0.0666666666667	90.0	192.0	0.0333333333333	0.1333333333333	0.0666666666667	267.5385482311249	
10	254.21113777160645	response	0	b		0.16666667	0.0666666666667	90.0	192.0	0.0333333333333	0.1333333333333	0.0666666666667	268.484525680542	
10	254.8651626110077	pulse	0	t		0.16666667	0.0666666666667	90.0	192.0	0.0333333333333	0.1333333333333	0.0666666666667	269.13855051994324	
11	254.90463066101074	stim	0		0	-1.0	1.0	-1.0	216.0	0.0333333333333	0.1333333333333	0.0666666666667	269.1780185699463	16.002500295639038
11	256.471652507782	pulse	0	t		-1.0	1.0	-1.0	216.0	0.0333333333333	0.1333333333333	0.0666666666667	270.74504041671753	
11	258.07185530662537	pulse	0	t		-1.0	1.0	-1.0	216.0	0.0333333333333	0.1333333333333	0.0666666666667	272.3452432155609	
11	259.67211055755615	pulse	0	t		-1.0	1.0	-1.0	216.0	0.0333333333333	0.1333333333333	0.0666666666667	273.9454984664917	
11	261.2725841999054	pulse	0	t		-1.0	1.0	-1.0	216.0	0.0333333333333	0.1333333333333	0.0666666666667	275.54597210884094	
11	262.87257528305054	pulse	0	t		-1.0	1.0	-1.0	216.0	0.0333333333333	0.1333333333333	0.0666666666667	277.1459631919861	
11	264.4654414653778	pulse	0	t		-1.0	1.0	-1.0	216.0	0.0333333333333	0.1333333333333	0.0666666666667	278.73882937431335	
11	265.05620527267456	response	0	b		-1.0	1.0	-1.0	216.0	0.0333333333333	0.1333333333333	0.0666666666667	279.3295931816101	
11	266.06519961357117	pulse	0	t		-1.0	1.0	-1.0	216.0	0.0333333333333	0.1333333333333	0.0666666666667	280.3385875225067	
11	267.2400257587433	response	0	b		-1.0	1.0	-1.0	216.0	0.0333333333333	0.1333333333333	0.0666666666667	281.51341366767883	
11	267.6660692691803	pulse	0	t		-1.0	1.0	-1.0	216.0	0.0333333333333	0.1333333333333	0.0666666666667	281.93945717811584	
11	269.26541543006897	pulse	0	t		-1.0	1.0	-1.0	216.0	0.0333333333333	0.1333333333333	0.0666666666667	283.5388033390045	
11	270.86553144454956	pulse	0	t		-1.0	1.0	-1.0	216.0	0.0333333333333	0.1333333333333	0.0666666666667	285.1389193534851	
12	270.9071309566498	stim	0		0	0.16666667	0.0666666666667	0.0	232.0	0.0333333333333	0.1333333333333	0.0666666666667	285.1805188655853	23.99526596069336
12	271.2988963127136	response	0	b		0.16666667	0.0666666666667	0.0	232.0	0.0333333333333	0.1333333333333	0.0666666666667	285.57228422164917	
12	272.46545600891113	pulse	0	t		0.16666667	0.0666666666667	0.0	232.0	0.0333333333333	0.1333333333333	0.0666666666667	286.7388439178467	
12	274.0653884410858	pulse	0	t		0.16666667	0.0666666666667	0.0	232.0	0.0333333333333	0.1333333333333	0.0666666666667	288.33877635002136	
12	274.40147948265076	response	0	b		0.16666667	0.0666666666667	0.0	232.0	0.0333333333333	0.1333333333333	0.0666666666667	288.6748673915863	
12	275.6654212474823	pulse	0	t		0.16666667	0.0666666666667	0.0	232.0	0.0333333333333	0.1333333333333	0.0666666666667	289.93880915641785	
12	277.2655107975006	pulse	0	t		0.16666667	0.0666666666667	0.0	232.0	0.0333333333333	0.1333333333333	0.0666666666667	291.53889870643616	
12	278.8654844760895	pulse	0	t		0.16666667	0.0666666666667	0.0	232.0	0.0333333333333	0.1333333333333	0.0666666666667	293.138872385025	
12	279.6034469604492	response	0	b		0.16666667	0.0666666666667	0.0	232.0	0.0333333333333	0.1333333333333	0.0666666666667	293.87683486938477	
12	280.46553683280945	pulse	0	t		0.16666667	0.0666666666667	0.0	232.0	0.0333333333333	0.1333333333333	0.0666666666667	294.738924741745	
12	281.80946803092957	response	0	b		0.16666667	0.0666666666667	0.0	232.0	0.0333333333333	0.1333333333333	0.0666666666667	296.0828559398651	
12	282.06557416915894	pulse	0	t		0.16666667	0.0666666666667	0.0	232.0	0.0333333333333	0.1333333333333	0.0666666666667	296.3389620780945	
12	283.6655285358429	pulse	0	t		0.16666667	0.0666666666667	0.0	232.0	0.0333333333333	0.1333333333333	0.0666666666667	297.93891644477844	
12	285.2656018733978	pulse	0	t		0.16666667	0.0666666666667	0.0	232.0	0.0333333333333	0.1333333333333	0.0666666666667	299.5389897823334	
12	286.8655366897583	pulse	0	t		0.16666667	0.0666666666667	0.0	232.0	0.0333333333333	0.1333333333333	0.0666666666667	301.13892459869385	
12	288.46562910079956	pulse	0	t		0.16666667	0.0666666666667	0.0	232.0	0.0333333333333	0.1333333333333	0.0666666666667	302.7390170097351	
12	289.8446042537689	response	0	b		0.16666667	0.0666666666667	0.0	232.0	0.0333333333333	0.1333333333333	0.0666666666667	304.11799216270447	
12	290.0655708312988	pulse	0	t		0.16666667	0.0666666666667	0.0	232.0	0.0333333333333	0.1333333333333	0.0666666666667	304.3389587402344	
12	291.66564536094666	pulse	0	t		0.16666667	0.0666666666667	0.0	232.0	0.0333333333333	0.1333333333333	0.0666666666667	305.9390332698822	
12	293.2655806541443	pulse	0	t		0.16666667	0.0666666666667	0.0	232.0	0.0333333333333	0.1333333333333	0.0666666666667	307.53896856307983	
12	294.865638256073	pulse	0	t		0.16666667	0.0666666666667	0.0	232.0	0.0333333333333	0.1333333333333	0.0666666666667	309.13902616500854	
13	294.90239691734314	stim	0		0	0.16666667	0.0666666666667	270.0	256.0	0.0333333333333	0.1333333333333	0.0666666666667	309.1757848262787	24.00359535217285
13	294.93147325515747	response	0	b		0.16666667	0.0666666666667	270.0	256.0	0.0333333333333	0.1333333333333	0.0666666666667	309.204861164093	
13	296.4656467437744	pulse	0	t		0.16666667	0.0666666666667	270.0	256.0	0.0333333333333	0.1333333333333	0.0666666666667	310.73903465270996	
13	297.15566992759705	response	0	b		0.16666667	0.0666666666667	270.0	256.0	0.0333333333333	0.1333333333333	0.0666666666667	311.4290578365326	
13	298.0656027793884	pulse	0	t		0.16666667	0.0666666666667	270.0	256.0	0.0333333333333	0.1333333333333	0.0666666666667	312.338990688324	
13	299.6656994819641	pulse	0	t		0.16666667	0.0666666666667	270.0	256.0	0.0333333333333	0.1333333333333	0.0666666666667	313.93908739089966	
13	301.26553988456726	pulse	0	t		0.16666667	0.0666666666667	270.0	256.0	0.0333333333333	0.1333333333333	0.0666666666667	315.5389277935028	
13	301.94936656951904	response	0	b		0.16666667	0.0666666666667	270.0	256.0	0.0333333333333	0.1333333333333	0.0666666666667	316.2227544784546	
13	302.8655483722687	pulse	0	t		0.16666667	0.0666666666667	270.0	256.0	0.0333333333333	0.1333333333333	0.0666666666667	317.1389362812042	
13	304.4655387401581	pulse	0	t		0.16666667	0.0666666666667	270.0	256.0	0.0333333333333	0.1333333333333	0.0666666666667	318.7389266490936	
13	305.95557379722595	response	0	b		0.16666667	0.0666666666667	270.0	256.0	0.0333333333333	0.1333333333333	0.0666666666667	320.2289617061615	
13	306.06551599502563	pulse	0	t		0.16666667	0.0666666666667	270.0	256.0	0.0333333333333	0.1333333333333	0.0666666666667	320.3389039039612	
13	307.6656231880188	pulse	0	t		0.16666667	0.0666666666667	270.0	256.0	0.0333333333333	0.1333333333333	0.0666666666667	321.93901109695435	
13	309.04063296318054	response	0	b		0.16666667	0.0666666666667	270.0	256.0	0.0333333333333	0.1333333333333	0.0666666666667	323.3140208721161	
13	309.265576839447	pulse	0	t		0.16666667	0.0666666666667	270.0	256.0	0.0333333333333	0.1333333333333	0.0666666666667	323.53896474838257	
13	310.86565351486206	pulse	0	t		0.16666667	0.0666666666667	270.0	256.0	0.0333333333333	0.1333333333333	0.0666666666667	325.1390414237976	
13	311.59462308883667	response	0	b		0.16666667	0.0666666666667	270.0	256.0	0.0333333333333	0.1333333333333	0.0666666666667	325.8680109977722	
13	312.4656479358673	pulse	0	t		0.16666667	0.0666666666667	270.0	256.0	0.0333333333333	0.1333333333333	0.0666666666667	326.73903584480286	
13	314.0656135082245	pulse	0	t		0.16666667	0.0666666666667	270.0	256.0	0.0333333333333	0.1333333333333	0.0666666666667	328.33900141716003	
13	314.2626028060913	response	0	b		0.16666667	0.0666666666667	270.0	256.0	0.0333333333333	0.1333333333333	0.0666666666667	328.53599071502686	
13	315.6656322479248	pulse	0	t		0.16666667	0.0666666666667	270.0	256.0	0.0333333333333	0.1333333333333	0.0666666666667	329.93902015686035	
13	317.2655785083771	pulse	0	t		0.16666667	0.0666666666667	270.0	256.0	0.0333333333333	0.1333333333333	0.0666666666667	331.5389664173126	
13	317.5845682621002	response	0	b		0.16666667	0.0666666666667	270.0	256.0	0.0333333333333	0.1333333333333	0.0666666666667	331.85795617103577	
13	318.86570286750793	pulse	0	t		0.16666667	0.0666666666667	270.0	256.0	0.0333333333333	0.1333333333333	0.0666666666667	333.1390907764435	
14	318.905992269516	stim	0		0								333.17938017845154	24.20384120941162
14	319.9396150112152	response	0	b									334.21300292015076	
14	320.4732186794281	pulse	0	t									334.74660658836365	
14	322.0662627220154	pulse	0	t									336.3396506309509	
14	323.66637659072876	pulse	0	t									337.9397644996643	
14	324.59022998809814	response	0	b									338.8636178970337	
14	325.2663359642029	pulse	0	t									339.5397238731384	
14	326.86596179008484	pulse	0	t									341.1393496990204	
14	328.4658718109131	pulse	0	t									342.73925971984863	
14	330.0660810470581	pulse	0	t									344.33946895599365	
14	331.666366815567	pulse	0	t									345.93975472450256	
14	333.2665648460388	pulse	0	t									347.53995275497437	
14	334.4761040210724	response	0	b									348.74949193000793	
14	334.866815328598	pulse	0	t									349.14020323753357	
14	336.4671268463135	pulse	0	t									350.740514755249	
14	338.0674979686737	pulse	0	t									352.34088587760925	
14	338.8008232116699	response	0	b									353.07421112060547	
14	339.66759395599365	pulse	0	t									353.9409818649292	
14	341.2679982185364	pulse	0	t									355.5413861274719	
14	342.7608714103699	response	0	b									357.0342593193054	
14	342.8680715560913	pulse	0	t									357.14145946502686	
