trial_nr	onset	event_type	phase	response	nr_frames	bar_width	bar_refresh_time	bar_direction	start_time	bar_blank_duration	bar_blank_interval	bg_stim_refresh_time	onset_abs	duration
0	0.15817642211914062	stim	0		0								15.5889253616333	0.20818805694580078
0	0.3583095073699951	response	0	space									15.789058446884155	
1	0.3663644790649414	stim	0		0								15.797113418579102	38.283576250076294
1	38.62009143829346	pulse	0	t									54.05084037780762	
1	38.649940729141235	stim	1		0								54.080689668655396	0.00186920166015625
1	38.65180993080139	stim	0		0								54.08255887031555	23.99893283843994
1	40.21423125267029	pulse	0	t									55.64498019218445	
1	41.81443214416504	pulse	0	t									57.2451810836792	
1	43.41467785835266	pulse	0	t									58.84542679786682	
1	43.68963623046875	response	0	b									59.12038516998291	
1	45.0149462223053	pulse	0	t									60.44569516181946	
1	46.131824016571045	response	0	b									61.562572956085205	
1	46.60936403274536	pulse	0	t									62.04011297225952	
1	48.21538424491882	pulse	0	t									63.64613318443298	
1	49.81578755378723	pulse	0	t									65.24653649330139	
1	51.41628623008728	pulse	0	t									66.84703516960144	
1	53.016441345214844	pulse	0	t									68.447190284729	
1	53.77459645271301	response	0	b									69.20534539222717	
1	54.60943794250488	pulse	0	t									70.04018688201904	
1	56.075201749801636	response	0	b									71.5059506893158	
1	56.20954203605652	pulse	0	t									71.64029097557068	
1	57.80941557884216	pulse	0	t									73.24016451835632	
1	59.41055178642273	pulse	0	t									74.84130072593689	
1	59.525394678115845	response	0	b									74.95614361763	
1	61.00926327705383	pulse	0	t									76.440012216568	
1	62.609270095825195	pulse	0	t									78.04001903533936	
2	62.65074276924133	stim	0		0	0.16666667	0.0666666666667	270.0	24.0	0.0333333333333	0.1333333333333	0.0666666666667	78.0814917087555	23.995373249053955
2	63.136407136917114	response	0	b		0.16666667	0.0666666666667	270.0	24.0	0.0333333333333	0.1333333333333	0.0666666666667	78.56715607643127	
2	64.20960855484009	pulse	0	t		0.16666667	0.0666666666667	270.0	24.0	0.0333333333333	0.1333333333333	0.0666666666667	79.64035749435425	
2	65.80860114097595	pulse	0	t		0.16666667	0.0666666666667	270.0	24.0	0.0333333333333	0.1333333333333	0.0666666666667	81.23935008049011	
2	67.40951323509216	pulse	0	t		0.16666667	0.0666666666667	270.0	24.0	0.0333333333333	0.1333333333333	0.0666666666667	82.84026217460632	
2	69.00852274894714	pulse	0	t		0.16666667	0.0666666666667	270.0	24.0	0.0333333333333	0.1333333333333	0.0666666666667	84.4392716884613	
2	70.60856676101685	pulse	0	t		0.16666667	0.0666666666667	270.0	24.0	0.0333333333333	0.1333333333333	0.0666666666667	86.039315700531	
2	70.93456029891968	response	0	b		0.16666667	0.0666666666667	270.0	24.0	0.0333333333333	0.1333333333333	0.0666666666667	86.36530923843384	
2	72.20855474472046	pulse	0	t		0.16666667	0.0666666666667	270.0	24.0	0.0333333333333	0.1333333333333	0.0666666666667	87.63930368423462	
2	73.80842113494873	pulse	0	t		0.16666667	0.0666666666667	270.0	24.0	0.0333333333333	0.1333333333333	0.0666666666667	89.23917007446289	
2	75.40851402282715	pulse	0	t		0.16666667	0.0666666666667	270.0	24.0	0.0333333333333	0.1333333333333	0.0666666666667	90.83926296234131	
2	77.00851130485535	pulse	0	t		0.16666667	0.0666666666667	270.0	24.0	0.0333333333333	0.1333333333333	0.0666666666667	92.4392602443695	
2	78.6085593700409	pulse	0	t		0.16666667	0.0666666666667	270.0	24.0	0.0333333333333	0.1333333333333	0.0666666666667	94.03930830955505	
2	78.94649863243103	response	0	b		0.16666667	0.0666666666667	270.0	24.0	0.0333333333333	0.1333333333333	0.0666666666667	94.37724757194519	
2	80.20860314369202	pulse	0	t		0.16666667	0.0666666666667	270.0	24.0	0.0333333333333	0.1333333333333	0.0666666666667	95.63935208320618	
2	81.4755551815033	response	0	b		0.16666667	0.0666666666667	270.0	24.0	0.0333333333333	0.1333333333333	0.0666666666667	96.90630412101746	
2	81.8085732460022	pulse	0	t		0.16666667	0.0666666666667	270.0	24.0	0.0333333333333	0.1333333333333	0.0666666666667	97.23932218551636	
2	83.40858888626099	pulse	0	t		0.16666667	0.0666666666667	270.0	24.0	0.0333333333333	0.1333333333333	0.0666666666667	98.83933782577515	
2	84.31754064559937	response	0	b		0.16666667	0.0666666666667	270.0	24.0	0.0333333333333	0.1333333333333	0.0666666666667	99.74828958511353	
2	85.00864434242249	pulse	0	t		0.16666667	0.0666666666667	270.0	24.0	0.0333333333333	0.1333333333333	0.0666666666667	100.43939328193665	
2	86.22660088539124	response	0	b		0.16666667	0.0666666666667	270.0	24.0	0.0333333333333	0.1333333333333	0.0666666666667	101.6573498249054	
2	86.60852789878845	pulse	0	t		0.16666667	0.0666666666667	270.0	24.0	0.0333333333333	0.1333333333333	0.0666666666667	102.03927683830261	
3	86.64611601829529	stim	0		0	0.16666667	0.0666666666667	0.0	48.0	0.0333333333333	0.1333333333333	0.0666666666667	102.07686495780945	24.0036141872406
3	88.20863032341003	pulse	0	t		0.16666667	0.0666666666667	0.0	48.0	0.0333333333333	0.1333333333333	0.0666666666667	103.6393792629242	
3	89.80857014656067	pulse	0	t		0.16666667	0.0666666666667	0.0	48.0	0.0333333333333	0.1333333333333	0.0666666666667	105.23931908607483	
3	90.86864495277405	response	0	b		0.16666667	0.0666666666667	0.0	48.0	0.0333333333333	0.1333333333333	0.0666666666667	106.29939389228821	
3	91.40867805480957	pulse	0	t		0.16666667	0.0666666666667	0.0	48.0	0.0333333333333	0.1333333333333	0.0666666666667	106.83942699432373	
3	93.00874423980713	pulse	0	t		0.16666667	0.0666666666667	0.0	48.0	0.0333333333333	0.1333333333333	0.0666666666667	108.43949317932129	
3	94.60868310928345	pulse	0	t		0.16666667	0.0666666666667	0.0	48.0	0.0333333333333	0.1333333333333	0.0666666666667	110.03943204879761	
3	95.78651094436646	response	0	b		0.16666667	0.0666666666667	0.0	48.0	0.0333333333333	0.1333333333333	0.0666666666667	111.21725988388062	
3	96.20850563049316	pulse	0	t		0.16666667	0.0666666666667	0.0	48.0	0.0333333333333	0.1333333333333	0.0666666666667	111.63925457000732	
3	97.80846810340881	pulse	0	t		0.16666667	0.0666666666667	0.0	48.0	0.0333333333333	0.1333333333333	0.0666666666667	113.23921704292297	
3	99.4085636138916	pulse	0	t		0.16666667	0.0666666666667	0.0	48.0	0.0333333333333	0.1333333333333	0.0666666666667	114.83931255340576	
3	101.00870752334595	pulse	0	t		0.16666667	0.0666666666667	0.0	48.0	0.0333333333333	0.1333333333333	0.0666666666667	116.43945646286011	
3	102.60857439041138	pulse	0	t		0.16666667	0.0666666666667	0.0	48.0	0.0333333333333	0.1333333333333	0.0666666666667	118.03932332992554	
3	103.04642987251282	response	0	b		0.16666667	0.0666666666667	0.0	48.0	0.0333333333333	0.1333333333333	0.0666666666667	118.47717881202698	
3	104.208664894104	pulse	0	t		0.16666667	0.0666666666667	0.0	48.0	0.0333333333333	0.1333333333333	0.0666666666667	119.63941383361816	
3	105.8086245059967	pulse	0	t		0.16666667	0.0666666666667	0.0	48.0	0.0333333333333	0.1333333333333	0.0666666666667	121.23937344551086	
3	107.40856075286865	pulse	0	t		0.16666667	0.0666666666667	0.0	48.0	0.0333333333333	0.1333333333333	0.0666666666667	122.83930969238281	
3	109.0085825920105	pulse	0	t		0.16666667	0.0666666666667	0.0	48.0	0.0333333333333	0.1333333333333	0.0666666666667	124.43933153152466	
3	110.60864520072937	pulse	0	t		0.16666667	0.0666666666667	0.0	48.0	0.0333333333333	0.1333333333333	0.0666666666667	126.03939414024353	
4	110.64973020553589	stim	0		0	-1.0	1.0	-1.0	72.0	0.0333333333333	0.1333333333333	0.0666666666667	126.08047914505005	15.99394679069519
4	112.20921349525452	pulse	0	t		-1.0	1.0	-1.0	72.0	0.0333333333333	0.1333333333333	0.0666666666667	127.63996243476868	
4	113.80861687660217	pulse	0	t		-1.0	1.0	-1.0	72.0	0.0333333333333	0.1333333333333	0.0666666666667	129.23936581611633	
4	114.58360481262207	response	0	b		-1.0	1.0	-1.0	72.0	0.0333333333333	0.1333333333333	0.0666666666667	130.01435375213623	
4	115.4087085723877	pulse	0	t		-1.0	1.0	-1.0	72.0	0.0333333333333	0.1333333333333	0.0666666666667	130.83945751190186	
4	117.0089545249939	pulse	0	t		-1.0	1.0	-1.0	72.0	0.0333333333333	0.1333333333333	0.0666666666667	132.43970346450806	
4	118.6092598438263	pulse	0	t		-1.0	1.0	-1.0	72.0	0.0333333333333	0.1333333333333	0.0666666666667	134.04000878334045	
4	120.2094304561615	pulse	0	t		-1.0	1.0	-1.0	72.0	0.0333333333333	0.1333333333333	0.0666666666667	135.64017939567566	
4	120.28441858291626	response	0	b		-1.0	1.0	-1.0	72.0	0.0333333333333	0.1333333333333	0.0666666666667	135.71516752243042	
4	121.8097174167633	pulse	0	t		-1.0	1.0	-1.0	72.0	0.0333333333333	0.1333333333333	0.0666666666667	137.24046635627747	
4	123.40992283821106	pulse	0	t		-1.0	1.0	-1.0	72.0	0.0333333333333	0.1333333333333	0.0666666666667	138.84067177772522	
4	124.56013107299805	response	0	b		-1.0	1.0	-1.0	72.0	0.0333333333333	0.1333333333333	0.0666666666667	139.9908800125122	
4	125.01016044616699	pulse	0	t		-1.0	1.0	-1.0	72.0	0.0333333333333	0.1333333333333	0.0666666666667	140.44090938568115	
4	126.61039280891418	pulse	0	t		-1.0	1.0	-1.0	72.0	0.0333333333333	0.1333333333333	0.0666666666667	142.04114174842834	
5	126.64367699623108	stim	0		0	0.16666667	0.0666666666667	90.0	88.0	0.0333333333333	0.1333333333333	0.0666666666667	142.07442593574524	24.003713846206665
5	127.45662498474121	response	0	b		0.16666667	0.0666666666667	90.0	88.0	0.0333333333333	0.1333333333333	0.0666666666667	142.88737392425537	
5	128.20886874198914	pulse	0	t		0.16666667	0.0666666666667	90.0	88.0	0.0333333333333	0.1333333333333	0.0666666666667	143.6396176815033	
5	129.8088641166687	pulse	0	t		0.16666667	0.0666666666667	90.0	88.0	0.0333333333333	0.1333333333333	0.0666666666667	145.23961305618286	
5	131.4088282585144	pulse	0	t		0.16666667	0.0666666666667	90.0	88.0	0.0333333333333	0.1333333333333	0.0666666666667	146.83957719802856	
5	131.7607386112213	response	0	b		0.16666667	0.0666666666667	90.0	88.0	0.0333333333333	0.1333333333333	0.0666666666667	147.19148755073547	
5	133.00886011123657	pulse	0	t		0.16666667	0.0666666666667	90.0	88.0	0.0333333333333	0.1333333333333	0.0666666666667	148.43960905075073	
5	134.33777332305908	response	0	b		0.16666667	0.0666666666667	90.0	88.0	0.0333333333333	0.1333333333333	0.0666666666667	149.76852226257324	
5	134.6088502407074	pulse	0	t		0.16666667	0.0666666666667	90.0	88.0	0.0333333333333	0.1333333333333	0.0666666666667	150.03959918022156	
5	136.20892906188965	pulse	0	t		0.16666667	0.0666666666667	90.0	88.0	0.0333333333333	0.1333333333333	0.0666666666667	151.6396780014038	
5	137.8090901374817	pulse	0	t		0.16666667	0.0666666666667	90.0	88.0	0.0333333333333	0.1333333333333	0.0666666666667	153.23983907699585	
5	137.8238468170166	response	0	b		0.16666667	0.0666666666667	90.0	88.0	0.0333333333333	0.1333333333333	0.0666666666667	153.25459575653076	
5	139.40901517868042	pulse	0	t		0.16666667	0.0666666666667	90.0	88.0	0.0333333333333	0.1333333333333	0.0666666666667	154.83976411819458	
5	141.00888228416443	pulse	0	t		0.16666667	0.0666666666667	90.0	88.0	0.0333333333333	0.1333333333333	0.0666666666667	156.4396312236786	
5	142.5250768661499	response	0	b		0.16666667	0.0666666666667	90.0	88.0	0.0333333333333	0.1333333333333	0.0666666666667	157.95582580566406	
5	142.60869598388672	pulse	0	t		0.16666667	0.0666666666667	90.0	88.0	0.0333333333333	0.1333333333333	0.0666666666667	158.03944492340088	
5	144.20912194252014	pulse	0	t		0.16666667	0.0666666666667	90.0	88.0	0.0333333333333	0.1333333333333	0.0666666666667	159.6398708820343	
5	145.15615391731262	response	0	b		0.16666667	0.0666666666667	90.0	88.0	0.0333333333333	0.1333333333333	0.0666666666667	160.58690285682678	
5	145.80890345573425	pulse	0	t		0.16666667	0.0666666666667	90.0	88.0	0.0333333333333	0.1333333333333	0.0666666666667	161.2396523952484	
5	147.4092094898224	pulse	0	t		0.16666667	0.0666666666667	90.0	88.0	0.0333333333333	0.1333333333333	0.0666666666667	162.83995842933655	
5	149.00914216041565	pulse	0	t		0.16666667	0.0666666666667	90.0	88.0	0.0333333333333	0.1333333333333	0.0666666666667	164.4398910999298	
5	150.60913276672363	pulse	0	t		0.16666667	0.0666666666667	90.0	88.0	0.0333333333333	0.1333333333333	0.0666666666667	166.0398817062378	
6	150.64739084243774	stim	0		0	0.16666667	0.0666666666667	180.0	112.0	0.0333333333333	0.1333333333333	0.0666666666667	166.0781397819519	24.003524780273438
6	152.20921301841736	pulse	0	t		0.16666667	0.0666666666667	180.0	112.0	0.0333333333333	0.1333333333333	0.0666666666667	167.63996195793152	
6	153.10020852088928	response	0	b		0.16666667	0.0666666666667	180.0	112.0	0.0333333333333	0.1333333333333	0.0666666666667	168.53095746040344	
6	153.80902242660522	pulse	0	t		0.16666667	0.0666666666667	180.0	112.0	0.0333333333333	0.1333333333333	0.0666666666667	169.23977136611938	
6	155.40882897377014	pulse	0	t		0.16666667	0.0666666666667	180.0	112.0	0.0333333333333	0.1333333333333	0.0666666666667	170.8395779132843	
6	157.0090832710266	pulse	0	t		0.16666667	0.0666666666667	180.0	112.0	0.0333333333333	0.1333333333333	0.0666666666667	172.43983221054077	
6	158.16393089294434	response	0	b		0.16666667	0.0666666666667	180.0	112.0	0.0333333333333	0.1333333333333	0.0666666666667	173.5946798324585	
6	158.6087408065796	pulse	0	t		0.16666667	0.0666666666667	180.0	112.0	0.0333333333333	0.1333333333333	0.0666666666667	174.03948974609375	
6	160.20897793769836	pulse	0	t		0.16666667	0.0666666666667	180.0	112.0	0.0333333333333	0.1333333333333	0.0666666666667	175.63972687721252	
6	161.80897092819214	pulse	0	t		0.16666667	0.0666666666667	180.0	112.0	0.0333333333333	0.1333333333333	0.0666666666667	177.2397198677063	
6	163.40910053253174	pulse	0	t		0.16666667	0.0666666666667	180.0	112.0	0.0333333333333	0.1333333333333	0.0666666666667	178.8398494720459	
6	164.31375694274902	response	0	b		0.16666667	0.0666666666667	180.0	112.0	0.0333333333333	0.1333333333333	0.0666666666667	179.74450588226318	
6	165.00896763801575	pulse	0	t		0.16666667	0.0666666666667	180.0	112.0	0.0333333333333	0.1333333333333	0.0666666666667	180.4397165775299	
6	166.60890555381775	pulse	0	t		0.16666667	0.0666666666667	180.0	112.0	0.0333333333333	0.1333333333333	0.0666666666667	182.0396544933319	
6	167.09627962112427	response	0	b		0.16666667	0.0666666666667	180.0	112.0	0.0333333333333	0.1333333333333	0.0666666666667	182.52702856063843	
6	168.2089991569519	pulse	0	t		0.16666667	0.0666666666667	180.0	112.0	0.0333333333333	0.1333333333333	0.0666666666667	183.63974809646606	
6	169.80919861793518	pulse	0	t		0.16666667	0.0666666666667	180.0	112.0	0.0333333333333	0.1333333333333	0.0666666666667	185.23994755744934	
6	171.4019865989685	response	0	b		0.16666667	0.0666666666667	180.0	112.0	0.0333333333333	0.1333333333333	0.0666666666667	186.83273553848267	
6	171.40855884552002	pulse	0	t		0.16666667	0.0666666666667	180.0	112.0	0.0333333333333	0.1333333333333	0.0666666666667	186.83930778503418	
6	173.00922775268555	pulse	0	t		0.16666667	0.0666666666667	180.0	112.0	0.0333333333333	0.1333333333333	0.0666666666667	188.4399766921997	
6	174.608980178833	pulse	0	t		0.16666667	0.0666666666667	180.0	112.0	0.0333333333333	0.1333333333333	0.0666666666667	190.03972911834717	
7	174.65091562271118	stim	0		0	-1.0	1.0	-1.0	136.0	0.0333333333333	0.1333333333333	0.0666666666667	190.08166456222534	15.994277238845825
7	175.36781334877014	response	0	b		-1.0	1.0	-1.0	136.0	0.0333333333333	0.1333333333333	0.0666666666667	190.7985622882843	
7	176.20989513397217	pulse	0	t		-1.0	1.0	-1.0	136.0	0.0333333333333	0.1333333333333	0.0666666666667	191.64064407348633	
7	177.81001782417297	pulse	0	t		-1.0	1.0	-1.0	136.0	0.0333333333333	0.1333333333333	0.0666666666667	193.24076676368713	
7	179.4101848602295	pulse	0	t		-1.0	1.0	-1.0	136.0	0.0333333333333	0.1333333333333	0.0666666666667	194.84093379974365	
7	181.01062941551208	pulse	0	t		-1.0	1.0	-1.0	136.0	0.0333333333333	0.1333333333333	0.0666666666667	196.44137835502625	
7	181.11073851585388	response	0	b		-1.0	1.0	-1.0	136.0	0.0333333333333	0.1333333333333	0.0666666666667	196.54148745536804	
7	182.61062717437744	pulse	0	t		-1.0	1.0	-1.0	136.0	0.0333333333333	0.1333333333333	0.0666666666667	198.0413761138916	
7	184.2111690044403	pulse	0	t		-1.0	1.0	-1.0	136.0	0.0333333333333	0.1333333333333	0.0666666666667	199.64191794395447	
7	185.8114457130432	pulse	0	t		-1.0	1.0	-1.0	136.0	0.0333333333333	0.1333333333333	0.0666666666667	201.24219465255737	
7	185.9198133945465	response	0	b		-1.0	1.0	-1.0	136.0	0.0333333333333	0.1333333333333	0.0666666666667	201.35056233406067	
7	187.41157293319702	pulse	0	t		-1.0	1.0	-1.0	136.0	0.0333333333333	0.1333333333333	0.0666666666667	202.84232187271118	
7	189.01167559623718	pulse	0	t		-1.0	1.0	-1.0	136.0	0.0333333333333	0.1333333333333	0.0666666666667	204.44242453575134	
7	190.61196899414062	pulse	0	t		-1.0	1.0	-1.0	136.0	0.0333333333333	0.1333333333333	0.0666666666667	206.04271793365479	
8	190.645192861557	stim	0		0	-1.0	1.0	-1.0	152.0	0.0333333333333	0.1333333333333	0.0666666666667	206.07594180107117	16.002250909805298
8	191.80372524261475	response	0	b		-1.0	1.0	-1.0	152.0	0.0333333333333	0.1333333333333	0.0666666666667	207.2344741821289	
8	192.21203422546387	pulse	0	t		-1.0	1.0	-1.0	152.0	0.0333333333333	0.1333333333333	0.0666666666667	207.64278316497803	
8	193.81244444847107	pulse	0	t		-1.0	1.0	-1.0	152.0	0.0333333333333	0.1333333333333	0.0666666666667	209.24319338798523	
8	194.09572052955627	response	0	b		-1.0	1.0	-1.0	152.0	0.0333333333333	0.1333333333333	0.0666666666667	209.52646946907043	
8	195.41267108917236	pulse	0	t		-1.0	1.0	-1.0	152.0	0.0333333333333	0.1333333333333	0.0666666666667	210.84342002868652	
8	197.01311230659485	pulse	0	t		-1.0	1.0	-1.0	152.0	0.0333333333333	0.1333333333333	0.0666666666667	212.443861246109	
8	198.61339211463928	pulse	0	t		-1.0	1.0	-1.0	152.0	0.0333333333333	0.1333333333333	0.0666666666667	214.04414105415344	
8	198.9966266155243	response	0	b		-1.0	1.0	-1.0	152.0	0.0333333333333	0.1333333333333	0.0666666666667	214.42737555503845	
8	200.21332216262817	pulse	0	t		-1.0	1.0	-1.0	152.0	0.0333333333333	0.1333333333333	0.0666666666667	215.64407110214233	
8	201.35535049438477	response	0	b		-1.0	1.0	-1.0	152.0	0.0333333333333	0.1333333333333	0.0666666666667	216.78609943389893	
8	201.81392312049866	pulse	0	t		-1.0	1.0	-1.0	152.0	0.0333333333333	0.1333333333333	0.0666666666667	217.24467206001282	
8	203.41409397125244	pulse	0	t		-1.0	1.0	-1.0	152.0	0.0333333333333	0.1333333333333	0.0666666666667	218.8448429107666	
8	205.0141727924347	pulse	0	t		-1.0	1.0	-1.0	152.0	0.0333333333333	0.1333333333333	0.0666666666667	220.44492173194885	
8	206.61433124542236	pulse	0	t		-1.0	1.0	-1.0	152.0	0.0333333333333	0.1333333333333	0.0666666666667	222.04508018493652	
9	206.6474437713623	stim	0		0	0.16666667	0.0666666666667	180.0	168.0	0.0333333333333	0.1333333333333	0.0666666666667	222.07819271087646	24.003576517105103
9	206.65200901031494	response	0	b		0.16666667	0.0666666666667	180.0	168.0	0.0333333333333	0.1333333333333	0.0666666666667	222.0827579498291	
9	208.2095284461975	pulse	0	t		0.16666667	0.0666666666667	180.0	168.0	0.0333333333333	0.1333333333333	0.0666666666667	223.64027738571167	
9	209.80960750579834	pulse	0	t		0.16666667	0.0666666666667	180.0	168.0	0.0333333333333	0.1333333333333	0.0666666666667	225.2403564453125	
9	211.40949177742004	pulse	0	t		0.16666667	0.0666666666667	180.0	168.0	0.0333333333333	0.1333333333333	0.0666666666667	226.8402407169342	
9	213.00935435295105	pulse	0	t		0.16666667	0.0666666666667	180.0	168.0	0.0333333333333	0.1333333333333	0.0666666666667	228.4401032924652	
9	214.60939168930054	pulse	0	t		0.16666667	0.0666666666667	180.0	168.0	0.0333333333333	0.1333333333333	0.0666666666667	230.0401406288147	
9	216.20937538146973	pulse	0	t		0.16666667	0.0666666666667	180.0	168.0	0.0333333333333	0.1333333333333	0.0666666666667	231.6401243209839	
9	217.80943727493286	pulse	0	t		0.16666667	0.0666666666667	180.0	168.0	0.0333333333333	0.1333333333333	0.0666666666667	233.24018621444702	
9	218.94424319267273	response	0	b		0.16666667	0.0666666666667	180.0	168.0	0.0333333333333	0.1333333333333	0.0666666666667	234.3749921321869	
9	219.40941977500916	pulse	0	t		0.16666667	0.0666666666667	180.0	168.0	0.0333333333333	0.1333333333333	0.0666666666667	234.84016871452332	
9	221.0094792842865	pulse	0	t		0.16666667	0.0666666666667	180.0	168.0	0.0333333333333	0.1333333333333	0.0666666666667	236.44022822380066	
9	222.6094901561737	pulse	0	t		0.16666667	0.0666666666667	180.0	168.0	0.0333333333333	0.1333333333333	0.0666666666667	238.04023909568787	
9	224.2094316482544	pulse	0	t		0.16666667	0.0666666666667	180.0	168.0	0.0333333333333	0.1333333333333	0.0666666666667	239.64018058776855	
9	225.8095419406891	pulse	0	t		0.16666667	0.0666666666667	180.0	168.0	0.0333333333333	0.1333333333333	0.0666666666667	241.24029088020325	
9	227.40930819511414	pulse	0	t		0.16666667	0.0666666666667	180.0	168.0	0.0333333333333	0.1333333333333	0.0666666666667	242.8400571346283	
9	227.84257888793945	response	0	b		0.16666667	0.0666666666667	180.0	168.0	0.0333333333333	0.1333333333333	0.0666666666667	243.2733278274536	
9	229.00951027870178	pulse	0	t		0.16666667	0.0666666666667	180.0	168.0	0.0333333333333	0.1333333333333	0.0666666666667	244.44025921821594	
9	230.60937237739563	pulse	0	t		0.16666667	0.0666666666667	180.0	168.0	0.0333333333333	0.1333333333333	0.0666666666667	246.0401213169098	
10	230.6510202884674	stim	0		0	0.16666667	0.0666666666667	90.0	192.0	0.0333333333333	0.1333333333333	0.0666666666667	246.08176922798157	23.99540114402771
10	232.20951175689697	pulse	0	t		0.16666667	0.0666666666667	90.0	192.0	0.0333333333333	0.1333333333333	0.0666666666667	247.64026069641113	
10	233.8094344139099	pulse	0	t		0.16666667	0.0666666666667	90.0	192.0	0.0333333333333	0.1333333333333	0.0666666666667	249.24018335342407	
10	234.15838146209717	response	0	b		0.16666667	0.0666666666667	90.0	192.0	0.0333333333333	0.1333333333333	0.0666666666667	249.58913040161133	
10	235.40956568717957	pulse	0	t		0.16666667	0.0666666666667	90.0	192.0	0.0333333333333	0.1333333333333	0.0666666666667	250.84031462669373	
10	236.89154767990112	response	0	b		0.16666667	0.0666666666667	90.0	192.0	0.0333333333333	0.1333333333333	0.0666666666667	252.32229661941528	
10	237.00862169265747	pulse	0	t		0.16666667	0.0666666666667	90.0	192.0	0.0333333333333	0.1333333333333	0.0666666666667	252.43937063217163	
10	238.60856652259827	pulse	0	t		0.16666667	0.0666666666667	90.0	192.0	0.0333333333333	0.1333333333333	0.0666666666667	254.03931546211243	
10	240.2086582183838	pulse	0	t		0.16666667	0.0666666666667	90.0	192.0	0.0333333333333	0.1333333333333	0.0666666666667	255.63940715789795	
10	241.61876964569092	response	0	b		0.16666667	0.0666666666667	90.0	192.0	0.0333333333333	0.1333333333333	0.0666666666667	257.0495185852051	
10	241.8087215423584	pulse	0	t		0.16666667	0.0666666666667	90.0	192.0	0.0333333333333	0.1333333333333	0.0666666666667	257.23947048187256	
10	243.4088487625122	pulse	0	t		0.16666667	0.0666666666667	90.0	192.0	0.0333333333333	0.1333333333333	0.0666666666667	258.83959770202637	
10	244.370014667511	response	0	b		0.16666667	0.0666666666667	90.0	192.0	0.0333333333333	0.1333333333333	0.0666666666667	259.80076360702515	
10	245.00874781608582	pulse	0	t		0.16666667	0.0666666666667	90.0	192.0	0.0333333333333	0.1333333333333	0.0666666666667	260.4394967556	
10	246.60880255699158	pulse	0	t		0.16666667	0.0666666666667	90.0	192.0	0.0333333333333	0.1333333333333	0.0666666666667	262.03955149650574	
10	248.2088496685028	pulse	0	t		0.16666667	0.0666666666667	90.0	192.0	0.0333333333333	0.1333333333333	0.0666666666667	263.63959860801697	
10	249.80885100364685	pulse	0	t		0.16666667	0.0666666666667	90.0	192.0	0.0333333333333	0.1333333333333	0.0666666666667	265.239599943161	
10	251.40886783599854	pulse	0	t		0.16666667	0.0666666666667	90.0	192.0	0.0333333333333	0.1333333333333	0.0666666666667	266.8396167755127	
10	253.00873136520386	pulse	0	t		0.16666667	0.0666666666667	90.0	192.0	0.0333333333333	0.1333333333333	0.0666666666667	268.439480304718	
10	254.60881185531616	pulse	0	t		0.16666667	0.0666666666667	90.0	192.0	0.0333333333333	0.1333333333333	0.0666666666667	270.0395607948303	
11	254.64642143249512	stim	0		0	-1.0	1.0	-1.0	216.0	0.0333333333333	0.1333333333333	0.0666666666667	270.0771703720093	16.002352714538574
11	256.2133708000183	pulse	0	t		-1.0	1.0	-1.0	216.0	0.0333333333333	0.1333333333333	0.0666666666667	271.64411973953247	
11	257.0384669303894	response	0	b		-1.0	1.0	-1.0	216.0	0.0333333333333	0.1333333333333	0.0666666666667	272.46921586990356	
11	257.8136987686157	pulse	0	t		-1.0	1.0	-1.0	216.0	0.0333333333333	0.1333333333333	0.0666666666667	273.2444477081299	
11	259.41384410858154	pulse	0	t		-1.0	1.0	-1.0	216.0	0.0333333333333	0.1333333333333	0.0666666666667	274.8445930480957	
11	259.59718656539917	response	0	b		-1.0	1.0	-1.0	216.0	0.0333333333333	0.1333333333333	0.0666666666667	275.02793550491333	
11	261.0140326023102	pulse	0	t		-1.0	1.0	-1.0	216.0	0.0333333333333	0.1333333333333	0.0666666666667	276.44478154182434	
11	262.61436104774475	pulse	0	t		-1.0	1.0	-1.0	216.0	0.0333333333333	0.1333333333333	0.0666666666667	278.0451099872589	
11	264.2145597934723	pulse	0	t		-1.0	1.0	-1.0	216.0	0.0333333333333	0.1333333333333	0.0666666666667	279.64530873298645	
11	264.3812565803528	response	0	b		-1.0	1.0	-1.0	216.0	0.0333333333333	0.1333333333333	0.0666666666667	279.81200551986694	
11	265.8148350715637	pulse	0	t		-1.0	1.0	-1.0	216.0	0.0333333333333	0.1333333333333	0.0666666666667	281.2455840110779	
11	267.40913558006287	pulse	0	t		-1.0	1.0	-1.0	216.0	0.0333333333333	0.1333333333333	0.0666666666667	282.839884519577	
11	268.4318504333496	response	0	b		-1.0	1.0	-1.0	216.0	0.0333333333333	0.1333333333333	0.0666666666667	283.86259937286377	
11	269.01548051834106	pulse	0	t		-1.0	1.0	-1.0	216.0	0.0333333333333	0.1333333333333	0.0666666666667	284.4462294578552	
11	270.6158170700073	pulse	0	t		-1.0	1.0	-1.0	216.0	0.0333333333333	0.1333333333333	0.0666666666667	286.0465660095215	
12	270.6487741470337	stim	0		0	0.16666667	0.0666666666667	0.0	232.0	0.0333333333333	0.1333333333333	0.0666666666667	286.07952308654785	24.003576517105103
12	271.0579218864441	response	0	b		0.16666667	0.0666666666667	0.0	232.0	0.0333333333333	0.1333333333333	0.0666666666667	286.48867082595825	
12	272.2090837955475	pulse	0	t		0.16666667	0.0666666666667	0.0	232.0	0.0333333333333	0.1333333333333	0.0666666666667	287.63983273506165	
12	273.3168480396271	response	0	b		0.16666667	0.0666666666667	0.0	232.0	0.0333333333333	0.1333333333333	0.0666666666667	288.74759697914124	
12	273.8088493347168	pulse	0	t		0.16666667	0.0666666666667	0.0	232.0	0.0333333333333	0.1333333333333	0.0666666666667	289.23959827423096	
12	275.4089276790619	pulse	0	t		0.16666667	0.0666666666667	0.0	232.0	0.0333333333333	0.1333333333333	0.0666666666667	290.83967661857605	
12	276.49993681907654	response	0	b		0.16666667	0.0666666666667	0.0	232.0	0.0333333333333	0.1333333333333	0.0666666666667	291.9306857585907	
12	277.00870990753174	pulse	0	t		0.16666667	0.0666666666667	0.0	232.0	0.0333333333333	0.1333333333333	0.0666666666667	292.4394588470459	
12	278.6086070537567	pulse	0	t		0.16666667	0.0666666666667	0.0	232.0	0.0333333333333	0.1333333333333	0.0666666666667	294.0393559932709	
12	279.518678188324	response	0	b		0.16666667	0.0666666666667	0.0	232.0	0.0333333333333	0.1333333333333	0.0666666666667	294.94942712783813	
12	280.20890855789185	pulse	0	t		0.16666667	0.0666666666667	0.0	232.0	0.0333333333333	0.1333333333333	0.0666666666667	295.639657497406	
12	281.80892968177795	pulse	0	t		0.16666667	0.0666666666667	0.0	232.0	0.0333333333333	0.1333333333333	0.0666666666667	297.2396786212921	
12	282.1907949447632	response	0	b		0.16666667	0.0666666666667	0.0	232.0	0.0333333333333	0.1333333333333	0.0666666666667	297.62154388427734	
12	283.40872287750244	pulse	0	t		0.16666667	0.0666666666667	0.0	232.0	0.0333333333333	0.1333333333333	0.0666666666667	298.8394718170166	
12	284.7107734680176	response	0	b		0.16666667	0.0666666666667	0.0	232.0	0.0333333333333	0.1333333333333	0.0666666666667	300.14152240753174	
12	285.0088438987732	pulse	0	t		0.16666667	0.0666666666667	0.0	232.0	0.0333333333333	0.1333333333333	0.0666666666667	300.43959283828735	
12	285.84465050697327	response	0	b		0.16666667	0.0666666666667	0.0	232.0	0.0333333333333	0.1333333333333	0.0666666666667	301.2753994464874	
12	286.6087965965271	pulse	0	t		0.16666667	0.0666666666667	0.0	232.0	0.0333333333333	0.1333333333333	0.0666666666667	302.03954553604126	
12	288.2090172767639	pulse	0	t		0.16666667	0.0666666666667	0.0	232.0	0.0333333333333	0.1333333333333	0.0666666666667	303.6397662162781	
12	288.4687829017639	response	0	b		0.16666667	0.0666666666667	0.0	232.0	0.0333333333333	0.1333333333333	0.0666666666667	303.8995318412781	
12	289.80903220176697	pulse	0	t		0.16666667	0.0666666666667	0.0	232.0	0.0333333333333	0.1333333333333	0.0666666666667	305.2397811412811	
12	291.40908193588257	pulse	0	t		0.16666667	0.0666666666667	0.0	232.0	0.0333333333333	0.1333333333333	0.0666666666667	306.83983087539673	
12	293.00889801979065	pulse	0	t		0.16666667	0.0666666666667	0.0	232.0	0.0333333333333	0.1333333333333	0.0666666666667	308.4396469593048	
12	294.6089951992035	pulse	0	t		0.16666667	0.0666666666667	0.0	232.0	0.0333333333333	0.1333333333333	0.0666666666667	310.03974413871765	
13	294.6523506641388	stim	0		0	0.16666667	0.0666666666667	270.0	256.0	0.0333333333333	0.1333333333333	0.0666666666667	310.08309960365295	23.99522042274475
13	296.20906019210815	pulse	0	t		0.16666667	0.0666666666667	270.0	256.0	0.0333333333333	0.1333333333333	0.0666666666667	311.6398091316223	
13	297.1779260635376	response	0	b		0.16666667	0.0666666666667	270.0	256.0	0.0333333333333	0.1333333333333	0.0666666666667	312.60867500305176	
13	297.80916714668274	pulse	0	t		0.16666667	0.0666666666667	270.0	256.0	0.0333333333333	0.1333333333333	0.0666666666667	313.2399160861969	
13	299.40918803215027	pulse	0	t		0.16666667	0.0666666666667	270.0	256.0	0.0333333333333	0.1333333333333	0.0666666666667	314.83993697166443	
13	299.9879264831543	response	0	b		0.16666667	0.0666666666667	270.0	256.0	0.0333333333333	0.1333333333333	0.0666666666667	315.41867542266846	
13	301.0090136528015	pulse	0	t		0.16666667	0.0666666666667	270.0	256.0	0.0333333333333	0.1333333333333	0.0666666666667	316.4397625923157	
13	302.6090843677521	pulse	0	t		0.16666667	0.0666666666667	270.0	256.0	0.0333333333333	0.1333333333333	0.0666666666667	318.03983330726624	
13	303.31219959259033	response	0	b		0.16666667	0.0666666666667	270.0	256.0	0.0333333333333	0.1333333333333	0.0666666666667	318.7429485321045	
13	304.209082365036	pulse	0	t		0.16666667	0.0666666666667	270.0	256.0	0.0333333333333	0.1333333333333	0.0666666666667	319.63983130455017	
13	305.80903792381287	pulse	0	t		0.16666667	0.0666666666667	270.0	256.0	0.0333333333333	0.1333333333333	0.0666666666667	321.239786863327	
13	306.4220492839813	response	0	b		0.16666667	0.0666666666667	270.0	256.0	0.0333333333333	0.1333333333333	0.0666666666667	321.8527982234955	
13	307.4091217517853	pulse	0	t		0.16666667	0.0666666666667	270.0	256.0	0.0333333333333	0.1333333333333	0.0666666666667	322.83987069129944	
13	309.009158372879	pulse	0	t		0.16666667	0.0666666666667	270.0	256.0	0.0333333333333	0.1333333333333	0.0666666666667	324.4399073123932	
13	310.60909390449524	pulse	0	t		0.16666667	0.0666666666667	270.0	256.0	0.0333333333333	0.1333333333333	0.0666666666667	326.0398428440094	
13	312.2092864513397	pulse	0	t		0.16666667	0.0666666666667	270.0	256.0	0.0333333333333	0.1333333333333	0.0666666666667	327.6400353908539	
13	313.8092186450958	pulse	0	t		0.16666667	0.0666666666667	270.0	256.0	0.0333333333333	0.1333333333333	0.0666666666667	329.23996758461	
13	315.30692410469055	response	0	b		0.16666667	0.0666666666667	270.0	256.0	0.0333333333333	0.1333333333333	0.0666666666667	330.7376730442047	
13	315.4091248512268	pulse	0	t		0.16666667	0.0666666666667	270.0	256.0	0.0333333333333	0.1333333333333	0.0666666666667	330.83987379074097	
13	317.009397983551	pulse	0	t		0.16666667	0.0666666666667	270.0	256.0	0.0333333333333	0.1333333333333	0.0666666666667	332.4401469230652	
13	318.3139455318451	response	0	b		0.16666667	0.0666666666667	270.0	256.0	0.0333333333333	0.1333333333333	0.0666666666667	333.74469447135925	
13	318.60938811302185	pulse	0	t		0.16666667	0.0666666666667	270.0	256.0	0.0333333333333	0.1333333333333	0.0666666666667	334.040137052536	
14	318.64757108688354	stim	0		0								334.0783200263977	24.220619678497314
14	320.21459197998047	pulse	0	t									335.64534091949463	
14	321.2231442928314	response	0	b									336.6538932323456	
14	321.8148374557495	pulse	0	t									337.2455863952637	
14	323.4150698184967	pulse	0	t									338.84581875801086	
14	325.0152151584625	pulse	0	t									340.4459640979767	
14	326.61557960510254	pulse	0	t									342.0463285446167	
14	328.0825204849243	response	0	b									343.5132694244385	
14	328.20955872535706	pulse	0	t									343.6403076648712	
14	329.8160946369171	pulse	0	t									345.2468435764313	
14	331.41638112068176	pulse	0	t									346.8471300601959	
14	331.65947580337524	response	0	b									347.0902247428894	
14	333.00979566574097	pulse	0	t									348.4405446052551	
14	334.6095380783081	pulse	0	t									350.04028701782227	
14	336.2114679813385	pulse	0	t									351.64221692085266	
14	336.5670921802521	response	0	b									351.99784111976624	
14	337.8100309371948	pulse	0	t									353.240779876709	
14	339.40944600105286	pulse	0	t									354.840194940567	
14	340.942752122879	response	0	b									356.3735010623932	
14	341.0095839500427	pulse	0	t									356.4403328895569	
14	342.6096713542938	pulse	0	t									358.040420293808	
