trial_nr	onset	event_type	phase	response	nr_frames	bar_width	bar_refresh_time	bar_direction	start_time	bar_blank_duration	bar_blank_interval	bg_stim_refresh_time	onset_abs	duration
0	0.15005993843078613	stim	0		0								10.986402988433838	0.16651391983032227
0	0.30849146842956543	response	0	space									11.144834518432617	
1	0.3165738582611084	stim	0		0								11.15291690826416	38.33495616912842
1	38.63214087486267	pulse	0	t									49.46848392486572	
1	38.651530027389526	stim	1		0								49.48787307739258	0.0013878345489501953
1	38.65291786193848	stim	0		0								49.48926091194153	23.998047590255737
1	40.22317886352539	pulse	0	t									51.05952191352844	
1	41.81600880622864	pulse	0	t									52.65235185623169	
1	43.41606020927429	pulse	0	t									54.252403259277344	
1	44.04830527305603	response	0	b									54.88464832305908	
1	45.01609396934509	pulse	0	t									55.852437019348145	
1	46.1152617931366	response	0	b									56.95160484313965	
1	46.616631269454956	pulse	0	t									57.45297431945801	
1	48.21682524681091	pulse	0	t									59.053168296813965	
1	48.98239183425903	response	0	b									59.818734884262085	
1	49.8159294128418	pulse	0	t									60.65227246284485	
1	51.41615414619446	pulse	0	t									62.25249719619751	
1	51.54101753234863	response	0	b									62.377360582351685	
1	53.016316652297974	pulse	0	t									63.852659702301025	
1	54.616509199142456	pulse	0	t									65.45285224914551	
1	55.95859169960022	response	0	b									66.79493474960327	
1	56.2167010307312	pulse	0	t									67.05304408073425	
1	57.817012786865234	pulse	0	t									68.65335583686829	
1	59.02567958831787	response	0	b									69.86202263832092	
1	59.417309045791626	pulse	0	t									70.25365209579468	
1	61.017744064331055	pulse	0	t									71.8540871143341	
1	61.45923328399658	response	0	b									72.29557633399963	
1	62.61772894859314	pulse	0	t									73.45407199859619	
2	62.650965452194214	stim	0		0	0.16666667	0.0666666666667	270.0	24.0	0.0333333333333	0.1333333333333	0.0666666666667	73.48730850219727	24.00349473953247
2	64.21511721611023	pulse	0	t		0.16666667	0.0666666666667	270.0	24.0	0.0333333333333	0.1333333333333	0.0666666666667	75.05146026611328	
2	65.81507158279419	pulse	0	t		0.16666667	0.0666666666667	270.0	24.0	0.0333333333333	0.1333333333333	0.0666666666667	76.65141463279724	
2	67.41516470909119	pulse	0	t		0.16666667	0.0666666666667	270.0	24.0	0.0333333333333	0.1333333333333	0.0666666666667	78.25150775909424	
2	67.72623658180237	response	0	b		0.16666667	0.0666666666667	270.0	24.0	0.0333333333333	0.1333333333333	0.0666666666667	78.56257963180542	
2	69.01507925987244	pulse	0	t		0.16666667	0.0666666666667	270.0	24.0	0.0333333333333	0.1333333333333	0.0666666666667	79.85142230987549	
2	70.39654445648193	response	0	b		0.16666667	0.0666666666667	270.0	24.0	0.0333333333333	0.1333333333333	0.0666666666667	81.23288750648499	
2	70.6151647567749	pulse	0	t		0.16666667	0.0666666666667	270.0	24.0	0.0333333333333	0.1333333333333	0.0666666666667	81.45150780677795	
2	72.2154438495636	pulse	0	t		0.16666667	0.0666666666667	270.0	24.0	0.0333333333333	0.1333333333333	0.0666666666667	83.05178689956665	
2	73.65613508224487	response	0	b		0.16666667	0.0666666666667	270.0	24.0	0.0333333333333	0.1333333333333	0.0666666666667	84.49247813224792	
2	73.81512832641602	pulse	0	t		0.16666667	0.0666666666667	270.0	24.0	0.0333333333333	0.1333333333333	0.0666666666667	84.65147137641907	
2	75.41523218154907	pulse	0	t		0.16666667	0.0666666666667	270.0	24.0	0.0333333333333	0.1333333333333	0.0666666666667	86.25157523155212	
2	75.92209053039551	response	0	b		0.16666667	0.0666666666667	270.0	24.0	0.0333333333333	0.1333333333333	0.0666666666667	86.75843358039856	
2	77.01512813568115	pulse	0	t		0.16666667	0.0666666666667	270.0	24.0	0.0333333333333	0.1333333333333	0.0666666666667	87.8514711856842	
2	78.61519765853882	pulse	0	t		0.16666667	0.0666666666667	270.0	24.0	0.0333333333333	0.1333333333333	0.0666666666667	89.45154070854187	
2	79.57518267631531	response	0	b		0.16666667	0.0666666666667	270.0	24.0	0.0333333333333	0.1333333333333	0.0666666666667	90.41152572631836	
2	80.21514296531677	pulse	0	t		0.16666667	0.0666666666667	270.0	24.0	0.0333333333333	0.1333333333333	0.0666666666667	91.05148601531982	
2	81.8152346611023	pulse	0	t		0.16666667	0.0666666666667	270.0	24.0	0.0333333333333	0.1333333333333	0.0666666666667	92.65157771110535	
2	82.69317030906677	response	0	b		0.16666667	0.0666666666667	270.0	24.0	0.0333333333333	0.1333333333333	0.0666666666667	93.52951335906982	
2	83.41521549224854	pulse	0	t		0.16666667	0.0666666666667	270.0	24.0	0.0333333333333	0.1333333333333	0.0666666666667	94.25155854225159	
2	85.01509284973145	pulse	0	t		0.16666667	0.0666666666667	270.0	24.0	0.0333333333333	0.1333333333333	0.0666666666667	95.8514358997345	
2	86.61508011817932	pulse	0	t		0.16666667	0.0666666666667	270.0	24.0	0.0333333333333	0.1333333333333	0.0666666666667	97.45142316818237	
3	86.65446019172668	stim	0		0	0.16666667	0.0666666666667	0.0	48.0	0.0333333333333	0.1333333333333	0.0666666666667	97.49080324172974	24.003668069839478
3	87.39020204544067	response	0	b		0.16666667	0.0666666666667	0.0	48.0	0.0333333333333	0.1333333333333	0.0666666666667	98.22654509544373	
3	88.2151665687561	pulse	0	t		0.16666667	0.0666666666667	0.0	48.0	0.0333333333333	0.1333333333333	0.0666666666667	99.05150961875916	
3	89.81512880325317	pulse	0	t		0.16666667	0.0666666666667	0.0	48.0	0.0333333333333	0.1333333333333	0.0666666666667	100.65147185325623	
3	91.41516065597534	pulse	0	t		0.16666667	0.0666666666667	0.0	48.0	0.0333333333333	0.1333333333333	0.0666666666667	102.2515037059784	
3	91.92811131477356	response	0	b		0.16666667	0.0666666666667	0.0	48.0	0.0333333333333	0.1333333333333	0.0666666666667	102.76445436477661	
3	93.01516652107239	pulse	0	t		0.16666667	0.0666666666667	0.0	48.0	0.0333333333333	0.1333333333333	0.0666666666667	103.85150957107544	
3	94.61504530906677	pulse	0	t		0.16666667	0.0666666666667	0.0	48.0	0.0333333333333	0.1333333333333	0.0666666666667	105.45138835906982	
3	96.21518325805664	pulse	0	t		0.16666667	0.0666666666667	0.0	48.0	0.0333333333333	0.1333333333333	0.0666666666667	107.05152630805969	
3	97.8151752948761	pulse	0	t		0.16666667	0.0666666666667	0.0	48.0	0.0333333333333	0.1333333333333	0.0666666666667	108.65151834487915	
3	98.9202024936676	response	0	b		0.16666667	0.0666666666667	0.0	48.0	0.0333333333333	0.1333333333333	0.0666666666667	109.75654554367065	
3	99.41516900062561	pulse	0	t		0.16666667	0.0666666666667	0.0	48.0	0.0333333333333	0.1333333333333	0.0666666666667	110.25151205062866	
3	100.80522418022156	response	0	b		0.16666667	0.0666666666667	0.0	48.0	0.0333333333333	0.1333333333333	0.0666666666667	111.64156723022461	
3	101.01518893241882	pulse	0	t		0.16666667	0.0666666666667	0.0	48.0	0.0333333333333	0.1333333333333	0.0666666666667	111.85153198242188	
3	102.61531686782837	pulse	0	t		0.16666667	0.0666666666667	0.0	48.0	0.0333333333333	0.1333333333333	0.0666666666667	113.45165991783142	
3	104.21537160873413	pulse	0	t		0.16666667	0.0666666666667	0.0	48.0	0.0333333333333	0.1333333333333	0.0666666666667	115.05171465873718	
3	104.62923216819763	response	0	b		0.16666667	0.0666666666667	0.0	48.0	0.0333333333333	0.1333333333333	0.0666666666667	115.46557521820068	
3	105.81537818908691	pulse	0	t		0.16666667	0.0666666666667	0.0	48.0	0.0333333333333	0.1333333333333	0.0666666666667	116.65172123908997	
3	107.41527080535889	pulse	0	t		0.16666667	0.0666666666667	0.0	48.0	0.0333333333333	0.1333333333333	0.0666666666667	118.25161385536194	
3	109.01135039329529	response	0	b		0.16666667	0.0666666666667	0.0	48.0	0.0333333333333	0.1333333333333	0.0666666666667	119.84769344329834	
3	109.01494765281677	pulse	0	t		0.16666667	0.0666666666667	0.0	48.0	0.0333333333333	0.1333333333333	0.0666666666667	119.85129070281982	
3	110.61541819572449	pulse	0	t		0.16666667	0.0666666666667	0.0	48.0	0.0333333333333	0.1333333333333	0.0666666666667	121.45176124572754	
4	110.65812826156616	stim	0		0	-1.0	1.0	-1.0	72.0	0.0333333333333	0.1333333333333	0.0666666666667	121.49447131156921	15.994282007217407
4	111.09175157546997	response	0	b		-1.0	1.0	-1.0	72.0	0.0333333333333	0.1333333333333	0.0666666666667	121.92809462547302	
4	112.21699690818787	pulse	0	t		-1.0	1.0	-1.0	72.0	0.0333333333333	0.1333333333333	0.0666666666667	123.05333995819092	
4	113.81721615791321	pulse	0	t		-1.0	1.0	-1.0	72.0	0.0333333333333	0.1333333333333	0.0666666666667	124.65355920791626	
4	114.88395714759827	response	0	b		-1.0	1.0	-1.0	72.0	0.0333333333333	0.1333333333333	0.0666666666667	125.72030019760132	
4	115.4173641204834	pulse	0	t		-1.0	1.0	-1.0	72.0	0.0333333333333	0.1333333333333	0.0666666666667	126.25370717048645	
4	116.95101356506348	response	0	b		-1.0	1.0	-1.0	72.0	0.0333333333333	0.1333333333333	0.0666666666667	127.78735661506653	
4	117.01778721809387	pulse	0	t		-1.0	1.0	-1.0	72.0	0.0333333333333	0.1333333333333	0.0666666666667	127.85413026809692	
4	118.61782264709473	pulse	0	t		-1.0	1.0	-1.0	72.0	0.0333333333333	0.1333333333333	0.0666666666667	129.45416569709778	
4	120.21836805343628	pulse	0	t		-1.0	1.0	-1.0	72.0	0.0333333333333	0.1333333333333	0.0666666666667	131.05471110343933	
4	121.05998229980469	response	0	b		-1.0	1.0	-1.0	72.0	0.0333333333333	0.1333333333333	0.0666666666667	131.89632534980774	
4	121.81862735748291	pulse	0	t		-1.0	1.0	-1.0	72.0	0.0333333333333	0.1333333333333	0.0666666666667	132.65497040748596	
4	123.41853737831116	pulse	0	t		-1.0	1.0	-1.0	72.0	0.0333333333333	0.1333333333333	0.0666666666667	134.2548804283142	
4	125.01899337768555	pulse	0	t		-1.0	1.0	-1.0	72.0	0.0333333333333	0.1333333333333	0.0666666666667	135.8553364276886	
4	126.61934494972229	pulse	0	t		-1.0	1.0	-1.0	72.0	0.0333333333333	0.1333333333333	0.0666666666667	137.45568799972534	
5	126.65241026878357	stim	0		0	0.16666667	0.0666666666667	90.0	88.0	0.0333333333333	0.1333333333333	0.0666666666667	137.48875331878662	24.00341033935547
5	127.36271119117737	response	0	b		0.16666667	0.0666666666667	90.0	88.0	0.0333333333333	0.1333333333333	0.0666666666667	138.19905424118042	
5	128.2157757282257	pulse	0	t		0.16666667	0.0666666666667	90.0	88.0	0.0333333333333	0.1333333333333	0.0666666666667	139.05211877822876	
5	129.81576824188232	pulse	0	t		0.16666667	0.0666666666667	90.0	88.0	0.0333333333333	0.1333333333333	0.0666666666667	140.65211129188538	
5	130.36573123931885	response	0	b		0.16666667	0.0666666666667	90.0	88.0	0.0333333333333	0.1333333333333	0.0666666666667	141.2020742893219	
5	131.41569805145264	pulse	0	t		0.16666667	0.0666666666667	90.0	88.0	0.0333333333333	0.1333333333333	0.0666666666667	142.2520411014557	
5	133.01576352119446	pulse	0	t		0.16666667	0.0666666666667	90.0	88.0	0.0333333333333	0.1333333333333	0.0666666666667	143.8521065711975	
5	134.61575198173523	pulse	0	t		0.16666667	0.0666666666667	90.0	88.0	0.0333333333333	0.1333333333333	0.0666666666667	145.45209503173828	
5	136.21578979492188	pulse	0	t		0.16666667	0.0666666666667	90.0	88.0	0.0333333333333	0.1333333333333	0.0666666666667	147.05213284492493	
5	136.58736395835876	response	0	b		0.16666667	0.0666666666667	90.0	88.0	0.0333333333333	0.1333333333333	0.0666666666667	147.42370700836182	
5	137.8157696723938	pulse	0	t		0.16666667	0.0666666666667	90.0	88.0	0.0333333333333	0.1333333333333	0.0666666666667	148.65211272239685	
5	139.4157428741455	pulse	0	t		0.16666667	0.0666666666667	90.0	88.0	0.0333333333333	0.1333333333333	0.0666666666667	150.25208592414856	
5	140.74152660369873	response	0	b		0.16666667	0.0666666666667	90.0	88.0	0.0333333333333	0.1333333333333	0.0666666666667	151.57786965370178	
5	141.01570105552673	pulse	0	t		0.16666667	0.0666666666667	90.0	88.0	0.0333333333333	0.1333333333333	0.0666666666667	151.85204410552979	
5	142.0506875514984	response	0	b		0.16666667	0.0666666666667	90.0	88.0	0.0333333333333	0.1333333333333	0.0666666666667	152.88703060150146	
5	142.61553311347961	pulse	0	t		0.16666667	0.0666666666667	90.0	88.0	0.0333333333333	0.1333333333333	0.0666666666667	153.45187616348267	
5	144.21566200256348	pulse	0	t		0.16666667	0.0666666666667	90.0	88.0	0.0333333333333	0.1333333333333	0.0666666666667	155.05200505256653	
5	144.4135377407074	response	0	b		0.16666667	0.0666666666667	90.0	88.0	0.0333333333333	0.1333333333333	0.0666666666667	155.24988079071045	
5	145.81565642356873	pulse	0	t		0.16666667	0.0666666666667	90.0	88.0	0.0333333333333	0.1333333333333	0.0666666666667	156.65199947357178	
5	146.56054782867432	response	0	b		0.16666667	0.0666666666667	90.0	88.0	0.0333333333333	0.1333333333333	0.0666666666667	157.39689087867737	
5	147.41558408737183	pulse	0	t		0.16666667	0.0666666666667	90.0	88.0	0.0333333333333	0.1333333333333	0.0666666666667	158.25192713737488	
5	149.01566219329834	pulse	0	t		0.16666667	0.0666666666667	90.0	88.0	0.0333333333333	0.1333333333333	0.0666666666667	159.8520052433014	
5	149.14154243469238	response	0	b		0.16666667	0.0666666666667	90.0	88.0	0.0333333333333	0.1333333333333	0.0666666666667	159.97788548469543	
5	150.61557960510254	pulse	0	t		0.16666667	0.0666666666667	90.0	88.0	0.0333333333333	0.1333333333333	0.0666666666667	161.4519226551056	
6	150.65582060813904	stim	0		0	0.16666667	0.0666666666667	180.0	112.0	0.0333333333333	0.1333333333333	0.0666666666667	161.4921636581421	24.00356674194336
6	152.21559643745422	pulse	0	t		0.16666667	0.0666666666667	180.0	112.0	0.0333333333333	0.1333333333333	0.0666666666667	163.05193948745728	
6	153.81561636924744	pulse	0	t		0.16666667	0.0666666666667	180.0	112.0	0.0333333333333	0.1333333333333	0.0666666666667	164.6519594192505	
6	155.41572523117065	pulse	0	t		0.16666667	0.0666666666667	180.0	112.0	0.0333333333333	0.1333333333333	0.0666666666667	166.2520682811737	
6	156.82265305519104	response	0	b		0.16666667	0.0666666666667	180.0	112.0	0.0333333333333	0.1333333333333	0.0666666666667	167.6589961051941	
6	157.0156819820404	pulse	0	t		0.16666667	0.0666666666667	180.0	112.0	0.0333333333333	0.1333333333333	0.0666666666667	167.85202503204346	
6	158.61568450927734	pulse	0	t		0.16666667	0.0666666666667	180.0	112.0	0.0333333333333	0.1333333333333	0.0666666666667	169.4520275592804	
6	160.21568369865417	pulse	0	t		0.16666667	0.0666666666667	180.0	112.0	0.0333333333333	0.1333333333333	0.0666666666667	171.05202674865723	
6	160.50763654708862	response	0	b		0.16666667	0.0666666666667	180.0	112.0	0.0333333333333	0.1333333333333	0.0666666666667	171.34397959709167	
6	161.81560063362122	pulse	0	t		0.16666667	0.0666666666667	180.0	112.0	0.0333333333333	0.1333333333333	0.0666666666667	172.65194368362427	
6	163.41568517684937	pulse	0	t		0.16666667	0.0666666666667	180.0	112.0	0.0333333333333	0.1333333333333	0.0666666666667	174.25202822685242	
6	164.24962902069092	response	0	b		0.16666667	0.0666666666667	180.0	112.0	0.0333333333333	0.1333333333333	0.0666666666667	175.08597207069397	
6	165.0157027244568	pulse	0	t		0.16666667	0.0666666666667	180.0	112.0	0.0333333333333	0.1333333333333	0.0666666666667	175.85204577445984	
6	166.61574745178223	pulse	0	t		0.16666667	0.0666666666667	180.0	112.0	0.0333333333333	0.1333333333333	0.0666666666667	177.45209050178528	
6	167.4667625427246	response	0	b		0.16666667	0.0666666666667	180.0	112.0	0.0333333333333	0.1333333333333	0.0666666666667	178.30310559272766	
6	168.21577310562134	pulse	0	t		0.16666667	0.0666666666667	180.0	112.0	0.0333333333333	0.1333333333333	0.0666666666667	179.0521161556244	
6	169.81581139564514	pulse	0	t		0.16666667	0.0666666666667	180.0	112.0	0.0333333333333	0.1333333333333	0.0666666666667	180.6521544456482	
6	171.4157772064209	pulse	0	t		0.16666667	0.0666666666667	180.0	112.0	0.0333333333333	0.1333333333333	0.0666666666667	182.25212025642395	
6	171.4826717376709	response	0	b		0.16666667	0.0666666666667	180.0	112.0	0.0333333333333	0.1333333333333	0.0666666666667	182.31901478767395	
6	173.01562643051147	pulse	0	t		0.16666667	0.0666666666667	180.0	112.0	0.0333333333333	0.1333333333333	0.0666666666667	183.85196948051453	
6	174.61588788032532	pulse	0	t		0.16666667	0.0666666666667	180.0	112.0	0.0333333333333	0.1333333333333	0.0666666666667	185.45223093032837	
7	174.6593873500824	stim	0		0	-1.0	1.0	-1.0	136.0	0.0333333333333	0.1333333333333	0.0666666666667	185.49573040008545	15.994136333465576
7	174.6622178554535	response	0	b		-1.0	1.0	-1.0	136.0	0.0333333333333	0.1333333333333	0.0666666666667	185.49856090545654	
7	176.21813416481018	pulse	0	t		-1.0	1.0	-1.0	136.0	0.0333333333333	0.1333333333333	0.0666666666667	187.05447721481323	
7	177.81835222244263	pulse	0	t		-1.0	1.0	-1.0	136.0	0.0333333333333	0.1333333333333	0.0666666666667	188.65469527244568	
7	179.4185609817505	pulse	0	t		-1.0	1.0	-1.0	136.0	0.0333333333333	0.1333333333333	0.0666666666667	190.25490403175354	
7	181.0187931060791	pulse	0	t		-1.0	1.0	-1.0	136.0	0.0333333333333	0.1333333333333	0.0666666666667	191.85513615608215	
7	182.5773549079895	response	0	b		-1.0	1.0	-1.0	136.0	0.0333333333333	0.1333333333333	0.0666666666667	193.41369795799255	
7	182.61898732185364	pulse	0	t		-1.0	1.0	-1.0	136.0	0.0333333333333	0.1333333333333	0.0666666666667	193.4553303718567	
7	184.21926641464233	pulse	0	t		-1.0	1.0	-1.0	136.0	0.0333333333333	0.1333333333333	0.0666666666667	195.05560946464539	
7	185.72806477546692	response	0	b		-1.0	1.0	-1.0	136.0	0.0333333333333	0.1333333333333	0.0666666666667	196.56440782546997	
7	185.81960248947144	pulse	0	t		-1.0	1.0	-1.0	136.0	0.0333333333333	0.1333333333333	0.0666666666667	196.6559455394745	
7	187.4199411869049	pulse	0	t		-1.0	1.0	-1.0	136.0	0.0333333333333	0.1333333333333	0.0666666666667	198.25628423690796	
7	189.02016639709473	pulse	0	t		-1.0	1.0	-1.0	136.0	0.0333333333333	0.1333333333333	0.0666666666667	199.85650944709778	
7	189.2201759815216	response	0	b		-1.0	1.0	-1.0	136.0	0.0333333333333	0.1333333333333	0.0666666666667	200.05651903152466	
7	190.62033605575562	pulse	0	t		-1.0	1.0	-1.0	136.0	0.0333333333333	0.1333333333333	0.0666666666667	201.45667910575867	
8	190.65352368354797	stim	0		0	-1.0	1.0	-1.0	152.0	0.0333333333333	0.1333333333333	0.0666666666667	201.48986673355103	16.002572536468506
8	192.22060823440552	pulse	0	t		-1.0	1.0	-1.0	152.0	0.0333333333333	0.1333333333333	0.0666666666667	203.05695128440857	
8	193.51254320144653	response	0	b		-1.0	1.0	-1.0	152.0	0.0333333333333	0.1333333333333	0.0666666666667	204.34888625144958	
8	193.82089257240295	pulse	0	t		-1.0	1.0	-1.0	152.0	0.0333333333333	0.1333333333333	0.0666666666667	204.657235622406	
8	195.421049118042	pulse	0	t		-1.0	1.0	-1.0	152.0	0.0333333333333	0.1333333333333	0.0666666666667	206.25739216804504	
8	197.0212905406952	pulse	0	t		-1.0	1.0	-1.0	152.0	0.0333333333333	0.1333333333333	0.0666666666667	207.85763359069824	
8	198.6215922832489	pulse	0	t		-1.0	1.0	-1.0	152.0	0.0333333333333	0.1333333333333	0.0666666666667	209.45793533325195	
8	199.07998275756836	response	0	b		-1.0	1.0	-1.0	152.0	0.0333333333333	0.1333333333333	0.0666666666667	209.9163258075714	
8	200.22177171707153	pulse	0	t		-1.0	1.0	-1.0	152.0	0.0333333333333	0.1333333333333	0.0666666666667	211.05811476707458	
8	201.8221092224121	pulse	0	t		-1.0	1.0	-1.0	152.0	0.0333333333333	0.1333333333333	0.0666666666667	212.65845227241516	
8	202.58049774169922	response	0	b		-1.0	1.0	-1.0	152.0	0.0333333333333	0.1333333333333	0.0666666666667	213.41684079170227	
8	203.4222972393036	pulse	0	t		-1.0	1.0	-1.0	152.0	0.0333333333333	0.1333333333333	0.0666666666667	214.25864028930664	
8	205.0224950313568	pulse	0	t		-1.0	1.0	-1.0	152.0	0.0333333333333	0.1333333333333	0.0666666666667	215.85883808135986	
8	206.62283849716187	pulse	0	t		-1.0	1.0	-1.0	152.0	0.0333333333333	0.1333333333333	0.0666666666667	217.45918154716492	
9	206.65609622001648	stim	0		0	0.16666667	0.0666666666667	180.0	168.0	0.0333333333333	0.1333333333333	0.0666666666667	217.49243927001953	24.003454208374023
9	206.74511313438416	response	0	b		0.16666667	0.0666666666667	180.0	168.0	0.0333333333333	0.1333333333333	0.0666666666667	217.5814561843872	
9	208.21618747711182	pulse	0	t		0.16666667	0.0666666666667	180.0	168.0	0.0333333333333	0.1333333333333	0.0666666666667	219.05253052711487	
9	209.8162453174591	pulse	0	t		0.16666667	0.0666666666667	180.0	168.0	0.0333333333333	0.1333333333333	0.0666666666667	220.65258836746216	
9	210.03010630607605	response	0	b		0.16666667	0.0666666666667	180.0	168.0	0.0333333333333	0.1333333333333	0.0666666666667	220.8664493560791	
9	211.41619157791138	pulse	0	t		0.16666667	0.0666666666667	180.0	168.0	0.0333333333333	0.1333333333333	0.0666666666667	222.25253462791443	
9	213.01604986190796	pulse	0	t		0.16666667	0.0666666666667	180.0	168.0	0.0333333333333	0.1333333333333	0.0666666666667	223.852392911911	
9	214.61614227294922	pulse	0	t		0.16666667	0.0666666666667	180.0	168.0	0.0333333333333	0.1333333333333	0.0666666666667	225.45248532295227	
9	216.2161774635315	pulse	0	t		0.16666667	0.0666666666667	180.0	168.0	0.0333333333333	0.1333333333333	0.0666666666667	227.05252051353455	
9	217.44955277442932	response	0	b		0.16666667	0.0666666666667	180.0	168.0	0.0333333333333	0.1333333333333	0.0666666666667	228.28589582443237	
9	217.81510591506958	pulse	0	t		0.16666667	0.0666666666667	180.0	168.0	0.0333333333333	0.1333333333333	0.0666666666667	228.65144896507263	
9	219.41515588760376	pulse	0	t		0.16666667	0.0666666666667	180.0	168.0	0.0333333333333	0.1333333333333	0.0666666666667	230.2514989376068	
9	220.8832609653473	response	0	b		0.16666667	0.0666666666667	180.0	168.0	0.0333333333333	0.1333333333333	0.0666666666667	231.71960401535034	
9	221.0151481628418	pulse	0	t		0.16666667	0.0666666666667	180.0	168.0	0.0333333333333	0.1333333333333	0.0666666666667	231.85149121284485	
9	222.61528730392456	pulse	0	t		0.16666667	0.0666666666667	180.0	168.0	0.0333333333333	0.1333333333333	0.0666666666667	233.4516303539276	
9	223.96836042404175	response	0	b		0.16666667	0.0666666666667	180.0	168.0	0.0333333333333	0.1333333333333	0.0666666666667	234.8047034740448	
9	224.21512293815613	pulse	0	t		0.16666667	0.0666666666667	180.0	168.0	0.0333333333333	0.1333333333333	0.0666666666667	235.05146598815918	
9	225.8152370452881	pulse	0	t		0.16666667	0.0666666666667	180.0	168.0	0.0333333333333	0.1333333333333	0.0666666666667	236.65158009529114	
9	227.41519856452942	pulse	0	t		0.16666667	0.0666666666667	180.0	168.0	0.0333333333333	0.1333333333333	0.0666666666667	238.25154161453247	
9	228.85523295402527	response	0	b		0.16666667	0.0666666666667	180.0	168.0	0.0333333333333	0.1333333333333	0.0666666666667	239.69157600402832	
9	229.01522254943848	pulse	0	t		0.16666667	0.0666666666667	180.0	168.0	0.0333333333333	0.1333333333333	0.0666666666667	239.85156559944153	
9	230.6152379512787	pulse	0	t		0.16666667	0.0666666666667	180.0	168.0	0.0333333333333	0.1333333333333	0.0666666666667	241.45158100128174	
10	230.6595504283905	stim	0		0	0.16666667	0.0666666666667	90.0	192.0	0.0333333333333	0.1333333333333	0.0666666666667	241.49589347839355	23.99533700942993
10	231.23924851417542	response	0	b		0.16666667	0.0666666666667	90.0	192.0	0.0333333333333	0.1333333333333	0.0666666666667	242.07559156417847	
10	232.21522998809814	pulse	0	t		0.16666667	0.0666666666667	90.0	192.0	0.0333333333333	0.1333333333333	0.0666666666667	243.0515730381012	
10	233.8153100013733	pulse	0	t		0.16666667	0.0666666666667	90.0	192.0	0.0333333333333	0.1333333333333	0.0666666666667	244.65165305137634	
10	234.22026419639587	response	0	b		0.16666667	0.0666666666667	90.0	192.0	0.0333333333333	0.1333333333333	0.0666666666667	245.05660724639893	
10	235.4152648448944	pulse	0	t		0.16666667	0.0666666666667	90.0	192.0	0.0333333333333	0.1333333333333	0.0666666666667	246.25160789489746	
10	237.01532220840454	pulse	0	t		0.16666667	0.0666666666667	90.0	192.0	0.0333333333333	0.1333333333333	0.0666666666667	247.8516652584076	
10	237.0721516609192	response	0	b		0.16666667	0.0666666666667	90.0	192.0	0.0333333333333	0.1333333333333	0.0666666666667	247.90849471092224	
10	238.61530542373657	pulse	0	t		0.16666667	0.0666666666667	90.0	192.0	0.0333333333333	0.1333333333333	0.0666666666667	249.45164847373962	
10	238.78316974639893	response	0	b		0.16666667	0.0666666666667	90.0	192.0	0.0333333333333	0.1333333333333	0.0666666666667	249.61951279640198	
10	240.21535468101501	pulse	0	t		0.16666667	0.0666666666667	90.0	192.0	0.0333333333333	0.1333333333333	0.0666666666667	251.05169773101807	
10	241.81533432006836	pulse	0	t		0.16666667	0.0666666666667	90.0	192.0	0.0333333333333	0.1333333333333	0.0666666666667	252.6516773700714	
10	243.4153516292572	pulse	0	t		0.16666667	0.0666666666667	90.0	192.0	0.0333333333333	0.1333333333333	0.0666666666667	254.25169467926025	
10	245.01535367965698	pulse	0	t		0.16666667	0.0666666666667	90.0	192.0	0.0333333333333	0.1333333333333	0.0666666666667	255.85169672966003	
10	245.37933659553528	response	0	b		0.16666667	0.0666666666667	90.0	192.0	0.0333333333333	0.1333333333333	0.0666666666667	256.21567964553833	
10	246.6153690814972	pulse	0	t		0.16666667	0.0666666666667	90.0	192.0	0.0333333333333	0.1333333333333	0.0666666666667	257.45171213150024	
10	248.21569776535034	pulse	0	t		0.16666667	0.0666666666667	90.0	192.0	0.0333333333333	0.1333333333333	0.0666666666667	259.0520408153534	
10	249.49952459335327	response	0	b		0.16666667	0.0666666666667	90.0	192.0	0.0333333333333	0.1333333333333	0.0666666666667	260.3358676433563	
10	249.8153417110443	pulse	0	t		0.16666667	0.0666666666667	90.0	192.0	0.0333333333333	0.1333333333333	0.0666666666667	260.65168476104736	
10	251.41552758216858	pulse	0	t		0.16666667	0.0666666666667	90.0	192.0	0.0333333333333	0.1333333333333	0.0666666666667	262.25187063217163	
10	252.14858102798462	response	0	b		0.16666667	0.0666666666667	90.0	192.0	0.0333333333333	0.1333333333333	0.0666666666667	262.98492407798767	
10	253.0155851840973	pulse	0	t		0.16666667	0.0666666666667	90.0	192.0	0.0333333333333	0.1333333333333	0.0666666666667	263.85192823410034	
10	254.61538219451904	pulse	0	t		0.16666667	0.0666666666667	90.0	192.0	0.0333333333333	0.1333333333333	0.0666666666667	265.4517252445221	
11	254.65488743782043	stim	0		0	-1.0	1.0	-1.0	216.0	0.0333333333333	0.1333333333333	0.0666666666667	265.4912304878235	16.002438068389893
11	256.2220697402954	pulse	0	t		-1.0	1.0	-1.0	216.0	0.0333333333333	0.1333333333333	0.0666666666667	267.05841279029846	
11	256.9555151462555	response	0	b		-1.0	1.0	-1.0	216.0	0.0333333333333	0.1333333333333	0.0666666666667	267.79185819625854	
11	257.8220410346985	pulse	0	t		-1.0	1.0	-1.0	216.0	0.0333333333333	0.1333333333333	0.0666666666667	268.65838408470154	
11	259.42227816581726	pulse	0	t		-1.0	1.0	-1.0	216.0	0.0333333333333	0.1333333333333	0.0666666666667	270.2586212158203	
11	261.01599860191345	pulse	0	t		-1.0	1.0	-1.0	216.0	0.0333333333333	0.1333333333333	0.0666666666667	271.8523416519165	
11	261.02797293663025	response	0	b		-1.0	1.0	-1.0	216.0	0.0333333333333	0.1333333333333	0.0666666666667	271.8643159866333	
11	262.6155300140381	pulse	0	t		-1.0	1.0	-1.0	216.0	0.0333333333333	0.1333333333333	0.0666666666667	273.45187306404114	
11	264.21576952934265	pulse	0	t		-1.0	1.0	-1.0	216.0	0.0333333333333	0.1333333333333	0.0666666666667	275.0521125793457	
11	264.70669889450073	response	0	b		-1.0	1.0	-1.0	216.0	0.0333333333333	0.1333333333333	0.0666666666667	275.5430419445038	
11	265.8160226345062	pulse	0	t		-1.0	1.0	-1.0	216.0	0.0333333333333	0.1333333333333	0.0666666666667	276.6523656845093	
11	267.41643476486206	pulse	0	t		-1.0	1.0	-1.0	216.0	0.0333333333333	0.1333333333333	0.0666666666667	278.2527778148651	
11	267.80733013153076	response	0	b		-1.0	1.0	-1.0	216.0	0.0333333333333	0.1333333333333	0.0666666666667	278.6436731815338	
11	269.01566100120544	pulse	0	t		-1.0	1.0	-1.0	216.0	0.0333333333333	0.1333333333333	0.0666666666667	279.8520040512085	
11	270.61572670936584	pulse	0	t		-1.0	1.0	-1.0	216.0	0.0333333333333	0.1333333333333	0.0666666666667	281.4520697593689	
12	270.6573255062103	stim	0		0	0.16666667	0.0666666666667	0.0	232.0	0.0333333333333	0.1333333333333	0.0666666666667	281.4936685562134	23.995377779006958
12	272.21564745903015	pulse	0	t		0.16666667	0.0666666666667	0.0	232.0	0.0333333333333	0.1333333333333	0.0666666666667	283.0519905090332	
12	272.7525866031647	response	0	b		0.16666667	0.0666666666667	0.0	232.0	0.0333333333333	0.1333333333333	0.0666666666667	283.5889296531677	
12	273.8156704902649	pulse	0	t		0.16666667	0.0666666666667	0.0	232.0	0.0333333333333	0.1333333333333	0.0666666666667	284.65201354026794	
12	275.4156901836395	pulse	0	t		0.16666667	0.0666666666667	0.0	232.0	0.0333333333333	0.1333333333333	0.0666666666667	286.2520332336426	
12	275.63563227653503	response	0	b		0.16666667	0.0666666666667	0.0	232.0	0.0333333333333	0.1333333333333	0.0666666666667	286.4719753265381	
12	277.01574969291687	pulse	0	t		0.16666667	0.0666666666667	0.0	232.0	0.0333333333333	0.1333333333333	0.0666666666667	287.8520927429199	
12	278.615736246109	pulse	0	t		0.16666667	0.0666666666667	0.0	232.0	0.0333333333333	0.1333333333333	0.0666666666667	289.45207929611206	
12	280.2157063484192	pulse	0	t		0.16666667	0.0666666666667	0.0	232.0	0.0333333333333	0.1333333333333	0.0666666666667	291.05204939842224	
12	281.8157787322998	pulse	0	t		0.16666667	0.0666666666667	0.0	232.0	0.0333333333333	0.1333333333333	0.0666666666667	292.65212178230286	
12	282.50665950775146	response	0	b		0.16666667	0.0666666666667	0.0	232.0	0.0333333333333	0.1333333333333	0.0666666666667	293.3430025577545	
12	283.41572618484497	pulse	0	t		0.16666667	0.0666666666667	0.0	232.0	0.0333333333333	0.1333333333333	0.0666666666667	294.252069234848	
12	285.0157732963562	pulse	0	t		0.16666667	0.0666666666667	0.0	232.0	0.0333333333333	0.1333333333333	0.0666666666667	295.85211634635925	
12	286.22872853279114	response	0	b		0.16666667	0.0666666666667	0.0	232.0	0.0333333333333	0.1333333333333	0.0666666666667	297.0650715827942	
12	286.61572313308716	pulse	0	t		0.16666667	0.0666666666667	0.0	232.0	0.0333333333333	0.1333333333333	0.0666666666667	297.4520661830902	
12	288.2157778739929	pulse	0	t		0.16666667	0.0666666666667	0.0	232.0	0.0333333333333	0.1333333333333	0.0666666666667	299.052120923996	
12	289.8158206939697	pulse	0	t		0.16666667	0.0666666666667	0.0	232.0	0.0333333333333	0.1333333333333	0.0666666666667	300.6521637439728	
12	291.4158103466034	pulse	0	t		0.16666667	0.0666666666667	0.0	232.0	0.0333333333333	0.1333333333333	0.0666666666667	302.25215339660645	
12	293.01588344573975	pulse	0	t		0.16666667	0.0666666666667	0.0	232.0	0.0333333333333	0.1333333333333	0.0666666666667	303.8522264957428	
12	293.37843441963196	response	0	b		0.16666667	0.0666666666667	0.0	232.0	0.0333333333333	0.1333333333333	0.0666666666667	304.214777469635	
12	294.6158046722412	pulse	0	t		0.16666667	0.0666666666667	0.0	232.0	0.0333333333333	0.1333333333333	0.0666666666667	305.45214772224426	
13	294.6527032852173	stim	0		0	0.16666667	0.0666666666667	270.0	256.0	0.0333333333333	0.1333333333333	0.0666666666667	305.48904633522034	24.003393173217773
13	295.83985447883606	response	0	b		0.16666667	0.0666666666667	270.0	256.0	0.0333333333333	0.1333333333333	0.0666666666667	306.6761975288391	
13	296.21580052375793	pulse	0	t		0.16666667	0.0666666666667	270.0	256.0	0.0333333333333	0.1333333333333	0.0666666666667	307.052143573761	
13	297.8158724308014	pulse	0	t		0.16666667	0.0666666666667	270.0	256.0	0.0333333333333	0.1333333333333	0.0666666666667	308.65221548080444	
13	299.41596364974976	pulse	0	t		0.16666667	0.0666666666667	270.0	256.0	0.0333333333333	0.1333333333333	0.0666666666667	310.2523066997528	
13	299.9968707561493	response	0	b		0.16666667	0.0666666666667	270.0	256.0	0.0333333333333	0.1333333333333	0.0666666666667	310.83321380615234	
13	301.0158395767212	pulse	0	t		0.16666667	0.0666666666667	270.0	256.0	0.0333333333333	0.1333333333333	0.0666666666667	311.85218262672424	
13	302.61580657958984	pulse	0	t		0.16666667	0.0666666666667	270.0	256.0	0.0333333333333	0.1333333333333	0.0666666666667	313.4521496295929	
13	303.3068673610687	response	0	b		0.16666667	0.0666666666667	270.0	256.0	0.0333333333333	0.1333333333333	0.0666666666667	314.1432104110718	
13	304.2158274650574	pulse	0	t		0.16666667	0.0666666666667	270.0	256.0	0.0333333333333	0.1333333333333	0.0666666666667	315.0521705150604	
13	305.8157947063446	pulse	0	t		0.16666667	0.0666666666667	270.0	256.0	0.0333333333333	0.1333333333333	0.0666666666667	316.65213775634766	
13	306.62673902511597	response	0	b		0.16666667	0.0666666666667	270.0	256.0	0.0333333333333	0.1333333333333	0.0666666666667	317.463082075119	
13	307.4158236980438	pulse	0	t		0.16666667	0.0666666666667	270.0	256.0	0.0333333333333	0.1333333333333	0.0666666666667	318.2521667480469	
13	309.0158591270447	pulse	0	t		0.16666667	0.0666666666667	270.0	256.0	0.0333333333333	0.1333333333333	0.0666666666667	319.85220217704773	
13	309.02854442596436	response	0	b		0.16666667	0.0666666666667	270.0	256.0	0.0333333333333	0.1333333333333	0.0666666666667	319.8648874759674	
13	310.6158437728882	pulse	0	t		0.16666667	0.0666666666667	270.0	256.0	0.0333333333333	0.1333333333333	0.0666666666667	321.45218682289124	
13	311.6247527599335	response	0	b		0.16666667	0.0666666666667	270.0	256.0	0.0333333333333	0.1333333333333	0.0666666666667	322.4610958099365	
13	312.2157278060913	pulse	0	t		0.16666667	0.0666666666667	270.0	256.0	0.0333333333333	0.1333333333333	0.0666666666667	323.05207085609436	
13	313.8158655166626	pulse	0	t		0.16666667	0.0666666666667	270.0	256.0	0.0333333333333	0.1333333333333	0.0666666666667	324.65220856666565	
13	315.41575813293457	pulse	0	t		0.16666667	0.0666666666667	270.0	256.0	0.0333333333333	0.1333333333333	0.0666666666667	326.2521011829376	
13	316.95381355285645	response	0	b		0.16666667	0.0666666666667	270.0	256.0	0.0333333333333	0.1333333333333	0.0666666666667	327.7901566028595	
13	317.0158188343048	pulse	0	t		0.16666667	0.0666666666667	270.0	256.0	0.0333333333333	0.1333333333333	0.0666666666667	327.85216188430786	
13	318.61585879325867	pulse	0	t		0.16666667	0.0666666666667	270.0	256.0	0.0333333333333	0.1333333333333	0.0666666666667	329.4522018432617	
14	318.65609645843506	stim	0		0								329.4924395084381	24.15376114845276
14	320.22312092781067	pulse	0	t									331.0594639778137	
14	321.817223072052	pulse	0	t									332.65356612205505	
14	322.95680356025696	response	0	b									333.79314661026	
14	323.4156665802002	pulse	0	t									334.25200963020325	
14	325.01589846611023	pulse	0	t									335.8522415161133	
14	325.9072685241699	response	0	b									336.743611574173	
14	326.61597323417664	pulse	0	t									337.4523162841797	
14	328.21598720550537	pulse	0	t									339.0523302555084	
14	328.45765137672424	response	0	b									339.2939944267273	
14	329.8161814212799	pulse	0	t									340.65252447128296	
14	331.41652369499207	pulse	0	t									342.2528667449951	
14	332.2248480319977	response	0	b									343.06119108200073	
14	333.01664423942566	pulse	0	t									343.8529872894287	
14	334.6169464588165	pulse	0	t									345.4532895088196	
14	336.2171823978424	pulse	0	t									347.05352544784546	
14	337.81740069389343	pulse	0	t									348.6537437438965	
14	339.41764211654663	pulse	0	t									350.2539851665497	
14	340.54437255859375	response	0	b									351.3807156085968	
14	341.017929315567	pulse	0	t									351.85427236557007	
14	342.6181631088257	pulse	0	t									353.45450615882874	
